[{"init_locations":[{"src":"http://localhost:8000/images/1_1.jpg","x":309,"y":76},{"src":"http://localhost:8000/images/1_2.jpg","x":470,"y":76},{"src":"http://localhost:8000/images/1_3.jpg","x":631,"y":76},{"src":"http://localhost:8000/images/1_4.jpg","x":793,"y":76}],"moves":[{"src":"http://localhost:8000/images/1_2.jpg","x":470,"y":314,"move_time":1117.4000000003725},{"src":"http://localhost:8000/images/1_1.jpg","x":309,"y":314,"move_time":942.8000000007451}],"final_locations":[{"final":{"src":"http://localhost:8000/images/1_1.jpg","x":309,"y":314,"move_time":942.8000000007451}}],"stars_time":[623.4000000003725],"end_time":[4936.800000000745],"rt":4313.4000000003725,"trial_type":"order","trial_index":0,"time_elapsed":4317,"internal_node_id":"0.0-0.0","subject":1688414482413,"condition":"conditionB"},{"init_locations":[{"src":"http://localhost:8000/images/1_5.jpg","x":309,"y":76},{"src":"http://localhost:8000/images/1_6.jpg","x":470,"y":76},{"src":"http://localhost:8000/images/1_7.jpg","x":631,"y":76},{"src":"http://localhost:8000/images/1_8.jpg","x":793,"y":76}],"moves":[],"final_locations":[{}],"stars_time":[4938.200000001118],"end_time":[5160.60000000149],"rt":222.40000000037253,"trial_type":"order","trial_index":1,"time_elapsed":4541,"internal_node_id":"0.0-1.0","subject":1688414482413,"condition":"conditionB"},{"init_locations":[{"src":"http://localhost:8000/images/2_1.jpg","x":309,"y":76},{"src":"http://localhost:8000/images/2_2.jpg","x":470,"y":76},{"src":"http://localhost:8000/images/2_3.jpg","x":631,"y":76},{"src":"http://localhost:8000/images/2_4.jpg","x":793,"y":76}],"moves":[],"final_locations":[{}],"stars_time":[5161.60000000149],"end_time":[5384.10000000149],"rt":222.5,"trial_type":"order","trial_index":2,"time_elapsed":4764,"internal_node_id":"0.0-2.0","subject":1688414482413,"condition":"conditionB"},{"init_locations":[{"src":"http://localhost:8000/images/2_5.jpg","x":309,"y":76},{"src":"http://localhost:8000/images/2_6.jpg","x":470,"y":76},{"src":"http://localhost:8000/images/2_7.jpg","x":631,"y":76},{"src":"http://localhost:8000/images/2_8.jpg","x":793,"y":76}],"moves":[],"final_locations":[{}],"stars_time":[5384.9000000003725],"end_time":[5624.4000000003725],"rt":239.5,"trial_type":"order","trial_index":3,"time_elapsed":5005,"internal_node_id":"0.0-3.0","subject":1688414482413,"condition":"conditionB"},{"init_locations":[{"src":"http://localhost:8000/images/3_1.jpg","x":309,"y":76},{"src":"http://localhost:8000/images/3_2.jpg","x":470,"y":76},{"src":"http://localhost:8000/images/3_3.jpg","x":631,"y":76},{"src":"http://localhost:8000/images/3_4.jpg","x":793,"y":76}],"moves":[],"final_locations":[{}],"stars_time":[5625.4000000003725],"end_time":[5816.300000000745],"rt":190.90000000037253,"trial_type":"order","trial_index":4,"time_elapsed":5196,"internal_node_id":"0.0-4.0","subject":1688414482413,"condition":"conditionB"},{"init_locations":[{"src":"http://localhost:8000/images/3_5.jpg","x":309,"y":76},{"src":"http://localhost:8000/images/3_6.jpg","x":470,"y":76},{"src":"http://localhost:8000/images/3_7.jpg","x":631,"y":76},{"src":"http://localhost:8000/images/3_8.jpg","x":793,"y":76}],"moves":[],"final_locations":[{}],"stars_time":[5816.9000000003725],"end_time":[6040.5],"rt":223.59999999962747,"trial_type":"order","trial_index":5,"time_elapsed":5421,"internal_node_id":"0.0-5.0","subject":1688414482413,"condition":"conditionB"},{"init_locations":[{"src":"http://localhost:8000/images/4_1.jpg","x":309,"y":76},{"src":"http://localhost:8000/images/4_2.jpg","x":470,"y":76},{"src":"http://localhost:8000/images/4_3.jpg","x":631,"y":76},{"src":"http://localhost:8000/images/4_4.jpg","x":793,"y":76}],"moves":[],"final_locations":[{}],"stars_time":[6041.4000000003725],"end_time":[6248.700000001118],"rt":207.30000000074506,"trial_type":"order","trial_index":6,"time_elapsed":5629,"internal_node_id":"0.0-6.0","subject":1688414482413,"condition":"conditionB"},{"init_locations":[{"src":"http://localhost:8000/images/4_5.jpg","x":309,"y":76},{"src":"http://localhost:8000/images/4_6.jpg","x":470,"y":76},{"src":"http://localhost:8000/images/4_7.jpg","x":631,"y":76},{"src":"http://localhost:8000/images/4_8.jpg","x":793,"y":76}],"moves":[],"final_locations":[{}],"stars_time":[6249.60000000149],"end_time":[6456.60000000149],"rt":207,"trial_type":"order","trial_index":7,"time_elapsed":5837,"internal_node_id":"0.0-7.0","subject":1688414482413,"condition":"conditionB"},{"init_locations":[{"src":"http://localhost:8000/images/5_1.jpg","x":309,"y":76},{"src":"http://localhost:8000/images/5_2.jpg","x":470,"y":76},{"src":"http://localhost:8000/images/5_3.jpg","x":631,"y":76},{"src":"http://localhost:8000/images/5_4.jpg","x":793,"y":76}],"moves":[],"final_locations":[{}],"stars_time":[6457.300000000745],"end_time":[6712.800000000745],"rt":255.5,"trial_type":"order","trial_index":8,"time_elapsed":6093,"internal_node_id":"0.0-8.0","subject":1688414482413,"condition":"conditionB"},{"init_locations":[{"src":"http://localhost:8000/images/5_5.jpg","x":309,"y":76},{"src":"http://localhost:8000/images/5_6.jpg","x":470,"y":76},{"src":"http://localhost:8000/images/5_7.jpg","x":631,"y":76},{"src":"http://localhost:8000/images/5_8.jpg","x":793,"y":76}],"moves":[],"final_locations":[{}],"stars_time":[6713.800000000745],"end_time":[6940.700000001118],"rt":226.90000000037253,"trial_type":"order","trial_index":9,"time_elapsed":6321,"internal_node_id":"0.0-9.0","subject":1688414482413,"condition":"conditionB"},{"init_locations":[{"src":"http://localhost:8000/images/6_1.jpg","x":309,"y":76},{"src":"http://localhost:8000/images/6_2.jpg","x":470,"y":76},{"src":"http://localhost:8000/images/6_3.jpg","x":631,"y":76},{"src":"http://localhost:8000/images/6_4.jpg","x":793,"y":76}],"moves":[],"final_locations":[{}],"stars_time":[6941.4000000003725],"end_time":[7164.5],"rt":223.09999999962747,"trial_type":"order","trial_index":10,"time_elapsed":6545,"internal_node_id":"0.0-10.0","subject":1688414482413,"condition":"conditionB"},{"init_locations":[{"src":"http://localhost:8000/images/6_5.jpg","x":309,"y":76},{"src":"http://localhost:8000/images/6_6.jpg","x":470,"y":76},{"src":"http://localhost:8000/images/6_7.jpg","x":631,"y":76},{"src":"http://localhost:8000/images/6_8.jpg","x":793,"y":76}],"moves":[],"final_locations":[{}],"stars_time":[7165.300000000745],"end_time":[7420.4000000003725],"rt":255.09999999962747,"trial_type":"order","trial_index":11,"time_elapsed":6801,"internal_node_id":"0.0-11.0","subject":1688414482413,"condition":"conditionB"},{"init_locations":[{"src":"http://localhost:8000/images/7_1.jpg","x":309,"y":76},{"src":"http://localhost:8000/images/7_2.jpg","x":470,"y":76},{"src":"http://localhost:8000/images/7_3.jpg","x":631,"y":76},{"src":"http://localhost:8000/images/7_4.jpg","x":793,"y":76}],"moves":[],"final_locations":[{}],"stars_time":[7421],"end_time":[7644.5],"rt":223.5,"trial_type":"order","trial_index":12,"time_elapsed":7025,"internal_node_id":"0.0-12.0","subject":1688414482413,"condition":"conditionB"},{"init_locations":[{"src":"http://localhost:8000/images/7_5.jpg","x":309,"y":76},{"src":"http://localhost:8000/images/7_6.jpg","x":470,"y":76},{"src":"http://localhost:8000/images/7_7.jpg","x":631,"y":76},{"src":"http://localhost:8000/images/7_8.jpg","x":793,"y":76}],"moves":[],"final_locations":[{}],"stars_time":[7645.10000000149],"end_time":[7852.10000000149],"rt":207,"trial_type":"order","trial_index":13,"time_elapsed":7232,"internal_node_id":"0.0-13.0","subject":1688414482413,"condition":"conditionB"},{"init_locations":[{"src":"http://localhost:8000/images/8_1.jpg","x":309,"y":76},{"src":"http://localhost:8000/images/8_2.jpg","x":470,"y":76},{"src":"http://localhost:8000/images/8_3.jpg","x":631,"y":76},{"src":"http://localhost:8000/images/8_4.jpg","x":793,"y":76}],"moves":[],"final_locations":[{}],"stars_time":[7852.700000001118],"end_time":[8076.60000000149],"rt":223.90000000037253,"trial_type":"order","trial_index":14,"time_elapsed":7457,"internal_node_id":"0.0-14.0","subject":1688414482413,"condition":"conditionB"},{"init_locations":[{"src":"http://localhost:8000/images/8_5.jpg","x":309,"y":76},{"src":"http://localhost:8000/images/8_6.jpg","x":470,"y":76},{"src":"http://localhost:8000/images/8_7.jpg","x":631,"y":76},{"src":"http://localhost:8000/images/8_8.jpg","x":793,"y":76}],"moves":[],"final_locations":[{}],"stars_time":[8077.300000000745],"end_time":[8332.60000000149],"rt":255.30000000074506,"trial_type":"order","trial_index":15,"time_elapsed":7713,"internal_node_id":"0.0-15.0","subject":1688414482413,"condition":"conditionB"},{"init_locations":[{"src":"http://localhost:8000/images/9_1.jpg","x":309,"y":76},{"src":"http://localhost:8000/images/9_2.jpg","x":470,"y":76},{"src":"http://localhost:8000/images/9_3.jpg","x":631,"y":76},{"src":"http://localhost:8000/images/9_4.jpg","x":793,"y":76}],"moves":[],"final_locations":[{}],"stars_time":[8333.300000000745],"end_time":[8668.900000000373],"rt":335.59999999962747,"trial_type":"order","trial_index":16,"time_elapsed":8049,"internal_node_id":"0.0-16.0","subject":1688414482413,"condition":"conditionB"},{"init_locations":[{"src":"http://localhost:8000/images/9_5.jpg","x":309,"y":76},{"src":"http://localhost:8000/images/9_6.jpg","x":470,"y":76},{"src":"http://localhost:8000/images/9_7.jpg","x":631,"y":76},{"src":"http://localhost:8000/images/9_8.jpg","x":793,"y":76}],"moves":[],"final_locations":[{}],"stars_time":[8669.5],"end_time":[8892.5],"rt":223,"trial_type":"order","trial_index":17,"time_elapsed":8273,"internal_node_id":"0.0-17.0","subject":1688414482413,"condition":"conditionB"},{"rt":2274.800000000745,"stimulus":"<p>How difficult was it to order the pictures?</p>","button_pressed":"2","trial_type":"html-button-response","trial_index":18,"time_elapsed":10549,"internal_node_id":"0.0-18.0","subject":1688414482413,"condition":"conditionB"}]