[{"init_locations":[{"src":"http://localhost:8000/images/1_1.jpg","x":40,"y":87},{"src":"http://localhost:8000/images/1_2.jpg","x":201,"y":87},{"src":"http://localhost:8000/images/1_3.jpg","x":362,"y":87},{"src":"http://localhost:8000/images/1_4.jpg","x":524,"y":87}],"moves":[{"src":"http://localhost:8000/images/1_2.jpg","x":201,"y":325,"move_time":3107.1000000089407},{"src":"http://localhost:8000/images/1_1.jpg","x":40,"y":325,"move_time":1197.5999999940395},{"src":"http://localhost:8000/images/1_3.jpg","x":362,"y":325,"move_time":1310.7999999970198},{"src":"http://localhost:8000/images/1_4.jpg","x":524,"y":325,"move_time":880.2999999970198}],"final_locations":[{"final":{"src":"http://localhost:8000/images/1_4.jpg","x":524,"y":325,"move_time":880.2999999970198}}],"stars_time":[141.8999999910593],"end_time":[8284.5],"rt":8142.600000008941,"trial_type":"order","trial_index":0,"time_elapsed":8146,"internal_node_id":"0.0-0.0","subject":1688315515610,"condition":"conditionA"},{"init_locations":[{"src":"http://localhost:8000/images/1_5.jpg","x":40,"y":76},{"src":"http://localhost:8000/images/1_6.jpg","x":201,"y":76},{"src":"http://localhost:8000/images/1_7.jpg","x":362,"y":76},{"src":"http://localhost:8000/images/1_8.jpg","x":524,"y":76}],"moves":[],"final_locations":[{}],"stars_time":[8286],"end_time":[8524.199999988079],"rt":238.19999998807907,"trial_type":"order","trial_index":1,"time_elapsed":8386,"internal_node_id":"0.0-1.0","subject":1688315515610,"condition":"conditionA"},{"init_locations":[{"src":"http://localhost:8000/images/2_1.jpg","x":40,"y":76},{"src":"http://localhost:8000/images/2_2.jpg","x":201,"y":76},{"src":"http://localhost:8000/images/2_3.jpg","x":362,"y":76},{"src":"http://localhost:8000/images/2_4.jpg","x":524,"y":76}],"moves":[],"final_locations":[{}],"stars_time":[8525.09999999404],"end_time":[8747.79999999702],"rt":222.70000000298023,"trial_type":"order","trial_index":2,"time_elapsed":8609,"internal_node_id":"0.0-2.0","subject":1688315515610,"condition":"conditionA"},{"init_locations":[{"src":"http://localhost:8000/images/2_5.jpg","x":40,"y":76},{"src":"http://localhost:8000/images/2_6.jpg","x":201,"y":76},{"src":"http://localhost:8000/images/2_7.jpg","x":362,"y":76},{"src":"http://localhost:8000/images/2_8.jpg","x":524,"y":76}],"moves":[],"final_locations":[{}],"stars_time":[8748.89999999106],"end_time":[8955.89999999106],"rt":207,"trial_type":"order","trial_index":3,"time_elapsed":8817,"internal_node_id":"0.0-3.0","subject":1688315515610,"condition":"conditionA"},{"init_locations":[{"src":"http://localhost:8000/images/3_1.jpg","x":40,"y":76},{"src":"http://localhost:8000/images/3_2.jpg","x":201,"y":76},{"src":"http://localhost:8000/images/3_3.jpg","x":362,"y":76},{"src":"http://localhost:8000/images/3_4.jpg","x":524,"y":76}],"moves":[],"final_locations":[{}],"stars_time":[8956.89999999106],"end_time":[9164.199999988079],"rt":207.29999999701977,"trial_type":"order","trial_index":4,"time_elapsed":9026,"internal_node_id":"0.0-4.0","subject":1688315515610,"condition":"conditionA"},{"init_locations":[{"src":"http://localhost:8000/images/3_5.jpg","x":40,"y":76},{"src":"http://localhost:8000/images/3_6.jpg","x":201,"y":76},{"src":"http://localhost:8000/images/3_7.jpg","x":362,"y":76},{"src":"http://localhost:8000/images/3_8.jpg","x":524,"y":76}],"moves":[],"final_locations":[{}],"stars_time":[9165.29999999702],"end_time":[9372.39999999106],"rt":207.09999999403954,"trial_type":"order","trial_index":5,"time_elapsed":9234,"internal_node_id":"0.0-5.0","subject":1688315515610,"condition":"conditionA"},{"init_locations":[{"src":"http://localhost:8000/images/4_1.jpg","x":40,"y":76},{"src":"http://localhost:8000/images/4_2.jpg","x":201,"y":76},{"src":"http://localhost:8000/images/4_3.jpg","x":362,"y":76},{"src":"http://localhost:8000/images/4_4.jpg","x":524,"y":76}],"moves":[],"final_locations":[{}],"stars_time":[9373.199999988079],"end_time":[9596.699999988079],"rt":223.5,"trial_type":"order","trial_index":6,"time_elapsed":9458,"internal_node_id":"0.0-6.0","subject":1688315515610,"condition":"conditionA"},{"init_locations":[{"src":"http://localhost:8000/images/4_5.jpg","x":40,"y":76},{"src":"http://localhost:8000/images/4_6.jpg","x":201,"y":76},{"src":"http://localhost:8000/images/4_7.jpg","x":362,"y":76},{"src":"http://localhost:8000/images/4_8.jpg","x":524,"y":76}],"moves":[],"final_locations":[{}],"stars_time":[9597.79999999702],"end_time":[9823.699999988079],"rt":225.8999999910593,"trial_type":"order","trial_index":7,"time_elapsed":9685,"internal_node_id":"0.0-7.0","subject":1688315515610,"condition":"conditionA"},{"init_locations":[{"src":"http://localhost:8000/images/5_1.jpg","x":40,"y":76},{"src":"http://localhost:8000/images/5_2.jpg","x":201,"y":76},{"src":"http://localhost:8000/images/5_3.jpg","x":362,"y":76},{"src":"http://localhost:8000/images/5_4.jpg","x":524,"y":76}],"moves":[],"final_locations":[{}],"stars_time":[9824.5],"end_time":[10031.79999999702],"rt":207.29999999701977,"trial_type":"order","trial_index":8,"time_elapsed":9893,"internal_node_id":"0.0-8.0","subject":1688315515610,"condition":"conditionA"},{"init_locations":[{"src":"http://localhost:8000/images/5_5.jpg","x":40,"y":76},{"src":"http://localhost:8000/images/5_6.jpg","x":201,"y":76},{"src":"http://localhost:8000/images/5_7.jpg","x":362,"y":76},{"src":"http://localhost:8000/images/5_8.jpg","x":524,"y":76}],"moves":[],"final_locations":[{}],"stars_time":[10032.59999999404],"end_time":[10240.39999999106],"rt":207.79999999701977,"trial_type":"order","trial_index":9,"time_elapsed":10102,"internal_node_id":"0.0-9.0","subject":1688315515610,"condition":"conditionA"},{"init_locations":[{"src":"http://localhost:8000/images/6_1.jpg","x":40,"y":76},{"src":"http://localhost:8000/images/6_2.jpg","x":201,"y":76},{"src":"http://localhost:8000/images/6_3.jpg","x":362,"y":76},{"src":"http://localhost:8000/images/6_4.jpg","x":524,"y":76}],"moves":[],"final_locations":[{}],"stars_time":[10241.5],"end_time":[10447.5],"rt":206,"trial_type":"order","trial_index":10,"time_elapsed":10309,"internal_node_id":"0.0-10.0","subject":1688315515610,"condition":"conditionA"},{"init_locations":[{"src":"http://localhost:8000/images/6_5.jpg","x":40,"y":76},{"src":"http://localhost:8000/images/6_6.jpg","x":201,"y":76},{"src":"http://localhost:8000/images/6_7.jpg","x":362,"y":76},{"src":"http://localhost:8000/images/6_8.jpg","x":524,"y":76}],"moves":[],"final_locations":[{}],"stars_time":[10448.09999999404],"end_time":[10656.199999988079],"rt":208.09999999403954,"trial_type":"order","trial_index":11,"time_elapsed":10518,"internal_node_id":"0.0-11.0","subject":1688315515610,"condition":"conditionA"},{"init_locations":[{"src":"http://localhost:8000/images/7_1.jpg","x":40,"y":76},{"src":"http://localhost:8000/images/7_2.jpg","x":201,"y":76},{"src":"http://localhost:8000/images/7_3.jpg","x":362,"y":76},{"src":"http://localhost:8000/images/7_4.jpg","x":524,"y":76}],"moves":[],"final_locations":[{}],"stars_time":[10657],"end_time":[10879.39999999106],"rt":222.3999999910593,"trial_type":"order","trial_index":12,"time_elapsed":10741,"internal_node_id":"0.0-12.0","subject":1688315515610,"condition":"conditionA"},{"init_locations":[{"src":"http://localhost:8000/images/7_5.jpg","x":40,"y":76},{"src":"http://localhost:8000/images/7_6.jpg","x":201,"y":76},{"src":"http://localhost:8000/images/7_7.jpg","x":362,"y":76},{"src":"http://localhost:8000/images/7_8.jpg","x":524,"y":76}],"moves":[],"final_locations":[{}],"stars_time":[10879.89999999106],"end_time":[11104.39999999106],"rt":224.5,"trial_type":"order","trial_index":13,"time_elapsed":10966,"internal_node_id":"0.0-13.0","subject":1688315515610,"condition":"conditionA"},{"init_locations":[{"src":"http://localhost:8000/images/8_1.jpg","x":40,"y":76},{"src":"http://localhost:8000/images/8_2.jpg","x":201,"y":76},{"src":"http://localhost:8000/images/8_3.jpg","x":362,"y":76},{"src":"http://localhost:8000/images/8_4.jpg","x":524,"y":76}],"moves":[{"src":"http://localhost:8000/images/8_2.jpg","x":201,"y":325,"move_time":951.1999999880791},{"src":"http://localhost:8000/images/8_1.jpg","x":40,"y":325,"move_time":774.7000000029802},{"src":"http://localhost:8000/images/8_3.jpg","x":362,"y":325,"move_time":779.7000000029802},{"src":"http://localhost:8000/images/8_4.jpg","x":362,"y":325,"move_time":975.7999999970198}],"final_locations":[{"final":{"src":"http://localhost:8000/images/8_4.jpg","x":362,"y":325,"move_time":975.7999999970198}}],"stars_time":[11105.5],"end_time":[15400],"rt":4294.5,"trial_type":"order","trial_index":14,"time_elapsed":15261,"internal_node_id":"0.0-14.0","subject":1688315515610,"condition":"conditionA"},{"init_locations":[{"src":"http://localhost:8000/images/8_5.jpg","x":40,"y":76},{"src":"http://localhost:8000/images/8_6.jpg","x":201,"y":76},{"src":"http://localhost:8000/images/8_7.jpg","x":362,"y":76},{"src":"http://localhost:8000/images/8_8.jpg","x":524,"y":76}],"moves":[],"final_locations":[{}],"stars_time":[15400.79999999702],"end_time":[15592.39999999106],"rt":191.59999999403954,"trial_type":"order","trial_index":15,"time_elapsed":15454,"internal_node_id":"0.0-15.0","subject":1688315515610,"condition":"conditionA"},{"init_locations":[{"src":"http://localhost:8000/images/9_1.jpg","x":40,"y":76},{"src":"http://localhost:8000/images/9_2.jpg","x":201,"y":76},{"src":"http://localhost:8000/images/9_3.jpg","x":362,"y":76},{"src":"http://localhost:8000/images/9_4.jpg","x":524,"y":76}],"moves":[],"final_locations":[{}],"stars_time":[15593.199999988079],"end_time":[15772.09999999404],"rt":178.90000000596046,"trial_type":"order","trial_index":16,"time_elapsed":15633,"internal_node_id":"0.0-16.0","subject":1688315515610,"condition":"conditionA"},{"init_locations":[{"src":"http://localhost:8000/images/9_5.jpg","x":40,"y":76},{"src":"http://localhost:8000/images/9_6.jpg","x":201,"y":76},{"src":"http://localhost:8000/images/9_7.jpg","x":362,"y":76},{"src":"http://localhost:8000/images/9_8.jpg","x":524,"y":76}],"moves":[],"final_locations":[{}],"stars_time":[15772.89999999106],"end_time":[15964.29999999702],"rt":191.40000000596046,"trial_type":"order","trial_index":17,"time_elapsed":15826,"internal_node_id":"0.0-17.0","subject":1688315515610,"condition":"conditionA"},{"rt":1150.300000011921,"stimulus":"<p>How difficult was it to order the pictures?</p>","button_pressed":"2","trial_type":"html-button-response","trial_index":18,"time_elapsed":16978,"internal_node_id":"0.0-18.0","subject":1688315515610,"condition":"conditionA"}]