[{"init_locations":[{"src":"http://34.125.186.26/images/1_1.jpg","x":317,"y":103},{"src":"http://34.125.186.26/images/1_2.jpg","x":478,"y":103},{"src":"http://34.125.186.26/images/1_3.jpg","x":640,"y":103},{"src":"http://34.125.186.26/images/1_4.jpg","x":801,"y":103}],"moves":[{"src":"http://34.125.186.26/images/1_2.jpg","x":201,"y":341,"move_time":8468.69999999553}],"final_locations":[{"final":{"src":"http://34.125.186.26/images/1_2.jpg","x":201,"y":341,"move_time":8468.69999999553}}],"stars_time":[678.7000000029802],"end_time":[10035],"rt":9356.29999999702,"trial_type":"order","trial_index":0,"time_elapsed":9363,"internal_node_id":"0.0-0.0","subject":1688453480331,"condition":"conditionB"},{"init_locations":[{"src":"http://34.125.186.26/images/1_5.jpg","x":40,"y":91},{"src":"http://34.125.186.26/images/1_6.jpg","x":201,"y":91},{"src":"http://34.125.186.26/images/1_7.jpg","x":362,"y":91},{"src":"http://34.125.186.26/images/1_8.jpg","x":524,"y":91}],"moves":[],"final_locations":[{}],"stars_time":[10037],"end_time":[10226],"rt":189,"trial_type":"order","trial_index":1,"time_elapsed":9554,"internal_node_id":"0.0-1.0","subject":1688453480331,"condition":"conditionB"},{"init_locations":[{"src":"http://34.125.186.26/images/2_1.jpg","x":40,"y":91},{"src":"http://34.125.186.26/images/2_2.jpg","x":201,"y":91},{"src":"http://34.125.186.26/images/2_3.jpg","x":362,"y":91},{"src":"http://34.125.186.26/images/2_4.jpg","x":524,"y":91}],"moves":[],"final_locations":[{}],"stars_time":[10226.89999999851],"end_time":[10418.30000000447],"rt":191.40000000596046,"trial_type":"order","trial_index":2,"time_elapsed":9747,"internal_node_id":"0.0-2.0","subject":1688453480331,"condition":"conditionB"},{"init_locations":[{"src":"http://34.125.186.26/images/2_5.jpg","x":40,"y":91},{"src":"http://34.125.186.26/images/2_6.jpg","x":201,"y":91},{"src":"http://34.125.186.26/images/2_7.jpg","x":362,"y":91},{"src":"http://34.125.186.26/images/2_8.jpg","x":524,"y":91}],"moves":[],"final_locations":[{}],"stars_time":[10419.39999999851],"end_time":[10610.60000000149],"rt":191.20000000298023,"trial_type":"order","trial_index":3,"time_elapsed":9939,"internal_node_id":"0.0-3.0","subject":1688453480331,"condition":"conditionB"},{"init_locations":[{"src":"http://34.125.186.26/images/3_1.jpg","x":40,"y":91},{"src":"http://34.125.186.26/images/3_2.jpg","x":201,"y":91},{"src":"http://34.125.186.26/images/3_3.jpg","x":362,"y":91},{"src":"http://34.125.186.26/images/3_4.jpg","x":524,"y":91}],"moves":[],"final_locations":[{}],"stars_time":[10611.70000000298],"end_time":[10802.30000000447],"rt":190.60000000149012,"trial_type":"order","trial_index":4,"time_elapsed":10131,"internal_node_id":"0.0-4.0","subject":1688453480331,"condition":"conditionB"},{"init_locations":[{"src":"http://34.125.186.26/images/3_5.jpg","x":40,"y":91},{"src":"http://34.125.186.26/images/3_6.jpg","x":201,"y":91},{"src":"http://34.125.186.26/images/3_7.jpg","x":362,"y":91},{"src":"http://34.125.186.26/images/3_8.jpg","x":524,"y":91}],"moves":[],"final_locations":[{}],"stars_time":[10803.30000000447],"end_time":[10994],"rt":190.69999999552965,"trial_type":"order","trial_index":5,"time_elapsed":10322,"internal_node_id":"0.0-5.0","subject":1688453480331,"condition":"conditionB"},{"init_locations":[{"src":"http://34.125.186.26/images/4_1.jpg","x":40,"y":91},{"src":"http://34.125.186.26/images/4_2.jpg","x":201,"y":91},{"src":"http://34.125.186.26/images/4_3.jpg","x":362,"y":91},{"src":"http://34.125.186.26/images/4_4.jpg","x":524,"y":91}],"moves":[],"final_locations":[{}],"stars_time":[10995.30000000447],"end_time":[11238.30000000447],"rt":243,"trial_type":"order","trial_index":6,"time_elapsed":10567,"internal_node_id":"0.0-6.0","subject":1688453480331,"condition":"conditionB"},{"init_locations":[{"src":"http://34.125.186.26/images/4_5.jpg","x":40,"y":91},{"src":"http://34.125.186.26/images/4_6.jpg","x":201,"y":91},{"src":"http://34.125.186.26/images/4_7.jpg","x":362,"y":91},{"src":"http://34.125.186.26/images/4_8.jpg","x":524,"y":91}],"moves":[],"final_locations":[{}],"stars_time":[11239.5],"end_time":[11429.89999999851],"rt":190.39999999850988,"trial_type":"order","trial_index":7,"time_elapsed":10758,"internal_node_id":"0.0-7.0","subject":1688453480331,"condition":"conditionB"},{"init_locations":[{"src":"http://34.125.186.26/images/5_1.jpg","x":40,"y":91},{"src":"http://34.125.186.26/images/5_2.jpg","x":201,"y":91},{"src":"http://34.125.186.26/images/5_3.jpg","x":362,"y":91},{"src":"http://34.125.186.26/images/5_4.jpg","x":524,"y":91}],"moves":[],"final_locations":[{}],"stars_time":[11431],"end_time":[11654.10000000149],"rt":223.10000000149012,"trial_type":"order","trial_index":8,"time_elapsed":10982,"internal_node_id":"0.0-8.0","subject":1688453480331,"condition":"conditionB"},{"init_locations":[{"src":"http://34.125.186.26/images/5_5.jpg","x":40,"y":91},{"src":"http://34.125.186.26/images/5_6.jpg","x":201,"y":91},{"src":"http://34.125.186.26/images/5_7.jpg","x":362,"y":91},{"src":"http://34.125.186.26/images/5_8.jpg","x":524,"y":91}],"moves":[],"final_locations":[{}],"stars_time":[11655.30000000447],"end_time":[11862.70000000298],"rt":207.39999999850988,"trial_type":"order","trial_index":9,"time_elapsed":11191,"internal_node_id":"0.0-9.0","subject":1688453480331,"condition":"conditionB"},{"init_locations":[{"src":"http://34.125.186.26/images/6_1.jpg","x":40,"y":91},{"src":"http://34.125.186.26/images/6_2.jpg","x":201,"y":91},{"src":"http://34.125.186.26/images/6_3.jpg","x":362,"y":91},{"src":"http://34.125.186.26/images/6_4.jpg","x":524,"y":91}],"moves":[],"final_locations":[{}],"stars_time":[11863.70000000298],"end_time":[12070.10000000149],"rt":206.39999999850988,"trial_type":"order","trial_index":10,"time_elapsed":11398,"internal_node_id":"0.0-10.0","subject":1688453480331,"condition":"conditionB"},{"init_locations":[{"src":"http://34.125.186.26/images/6_5.jpg","x":40,"y":91},{"src":"http://34.125.186.26/images/6_6.jpg","x":201,"y":91},{"src":"http://34.125.186.26/images/6_7.jpg","x":362,"y":91},{"src":"http://34.125.186.26/images/6_8.jpg","x":524,"y":91}],"moves":[],"final_locations":[{}],"stars_time":[12071],"end_time":[12280.30000000447],"rt":209.30000000447035,"trial_type":"order","trial_index":11,"time_elapsed":11609,"internal_node_id":"0.0-11.0","subject":1688453480331,"condition":"conditionB"},{"init_locations":[{"src":"http://34.125.186.26/images/7_1.jpg","x":40,"y":91},{"src":"http://34.125.186.26/images/7_2.jpg","x":201,"y":91},{"src":"http://34.125.186.26/images/7_3.jpg","x":362,"y":91},{"src":"http://34.125.186.26/images/7_4.jpg","x":524,"y":91}],"moves":[],"final_locations":[{}],"stars_time":[12281.39999999851],"end_time":[12469.80000000447],"rt":188.40000000596046,"trial_type":"order","trial_index":12,"time_elapsed":11798,"internal_node_id":"0.0-12.0","subject":1688453480331,"condition":"conditionB"},{"init_locations":[{"src":"http://34.125.186.26/images/7_5.jpg","x":40,"y":91},{"src":"http://34.125.186.26/images/7_6.jpg","x":201,"y":91},{"src":"http://34.125.186.26/images/7_7.jpg","x":362,"y":91},{"src":"http://34.125.186.26/images/7_8.jpg","x":524,"y":91}],"moves":[],"final_locations":[{}],"stars_time":[12470.5],"end_time":[12678.39999999851],"rt":207.89999999850988,"trial_type":"order","trial_index":13,"time_elapsed":12007,"internal_node_id":"0.0-13.0","subject":1688453480331,"condition":"conditionB"},{"init_locations":[{"src":"http://34.125.186.26/images/8_1.jpg","x":40,"y":91},{"src":"http://34.125.186.26/images/8_2.jpg","x":201,"y":91},{"src":"http://34.125.186.26/images/8_3.jpg","x":362,"y":91},{"src":"http://34.125.186.26/images/8_4.jpg","x":524,"y":91}],"moves":[],"final_locations":[{}],"stars_time":[12679.30000000447],"end_time":[12886.20000000298],"rt":206.89999999850988,"trial_type":"order","trial_index":14,"time_elapsed":12214,"internal_node_id":"0.0-14.0","subject":1688453480331,"condition":"conditionB"},{"init_locations":[{"src":"http://34.125.186.26/images/8_5.jpg","x":40,"y":91},{"src":"http://34.125.186.26/images/8_6.jpg","x":201,"y":91},{"src":"http://34.125.186.26/images/8_7.jpg","x":362,"y":91},{"src":"http://34.125.186.26/images/8_8.jpg","x":524,"y":91}],"moves":[],"final_locations":[{}],"stars_time":[12887.20000000298],"end_time":[13079.80000000447],"rt":192.60000000149012,"trial_type":"order","trial_index":15,"time_elapsed":12408,"internal_node_id":"0.0-15.0","subject":1688453480331,"condition":"conditionB"},{"init_locations":[{"src":"http://34.125.186.26/images/9_1.jpg","x":40,"y":91},{"src":"http://34.125.186.26/images/9_2.jpg","x":201,"y":91},{"src":"http://34.125.186.26/images/9_3.jpg","x":362,"y":91},{"src":"http://34.125.186.26/images/9_4.jpg","x":524,"y":91}],"moves":[],"final_locations":[{}],"stars_time":[13080.80000000447],"end_time":[13318.30000000447],"rt":237.5,"trial_type":"order","trial_index":16,"time_elapsed":12647,"internal_node_id":"0.0-16.0","subject":1688453480331,"condition":"conditionB"},{"init_locations":[{"src":"http://34.125.186.26/images/9_5.jpg","x":40,"y":91},{"src":"http://34.125.186.26/images/9_6.jpg","x":201,"y":91},{"src":"http://34.125.186.26/images/9_7.jpg","x":362,"y":91},{"src":"http://34.125.186.26/images/9_8.jpg","x":524,"y":91}],"moves":[],"final_locations":[{}],"stars_time":[13319.30000000447],"end_time":[13542.30000000447],"rt":223,"trial_type":"order","trial_index":17,"time_elapsed":12871,"internal_node_id":"0.0-17.0","subject":1688453480331,"condition":"conditionB"},{"rt":1554.7000000029802,"stimulus":"<p>How difficult was it to order the pictures?</p>","button_pressed":"2","trial_type":"html-button-response","trial_index":18,"time_elapsed":14427,"internal_node_id":"0.0-18.0","subject":1688453480331,"condition":"conditionB"}]