[{"init_locations":[{"src":"http://localhost:8000/images/1_1.jpg","x":40,"y":87},{"src":"http://localhost:8000/images/1_2.jpg","x":201,"y":87},{"src":"http://localhost:8000/images/1_3.jpg","x":362,"y":87},{"src":"http://localhost:8000/images/1_4.jpg","x":524,"y":87}],"moves":[{"src":"http://localhost:8000/images/1_3.jpg","x":362,"y":325,"move_time":1976},{"src":"http://localhost:8000/images/1_2.jpg","x":201,"y":325,"move_time":1086.5}],"final_locations":[{"final":{"src":"http://localhost:8000/images/1_2.jpg","x":201,"y":325,"move_time":1086.5}}],"stars_time":[143.29999999701977],"end_time":[4497.4000000059605],"rt":4354.100000008941,"trial_type":"order","trial_index":0,"time_elapsed":4358,"internal_node_id":"0.0-0.0","subject":1688315586422,"condition":"conditionA"},{"init_locations":[{"src":"http://localhost:8000/images/1_5.jpg","x":40,"y":76},{"src":"http://localhost:8000/images/1_6.jpg","x":201,"y":76},{"src":"http://localhost:8000/images/1_7.jpg","x":362,"y":76},{"src":"http://localhost:8000/images/1_8.jpg","x":524,"y":76}],"moves":[],"final_locations":[{}],"stars_time":[4499.29999999702],"end_time":[4752.79999999702],"rt":253.5,"trial_type":"order","trial_index":1,"time_elapsed":4613,"internal_node_id":"0.0-1.0","subject":1688315586422,"condition":"conditionA"},{"init_locations":[{"src":"http://localhost:8000/images/2_1.jpg","x":40,"y":76},{"src":"http://localhost:8000/images/2_2.jpg","x":201,"y":76},{"src":"http://localhost:8000/images/2_3.jpg","x":362,"y":76},{"src":"http://localhost:8000/images/2_4.jpg","x":524,"y":76}],"moves":[],"final_locations":[{}],"stars_time":[4754.20000000298],"end_time":[5008.79999999702],"rt":254.59999999403954,"trial_type":"order","trial_index":2,"time_elapsed":4868,"internal_node_id":"0.0-2.0","subject":1688315586422,"condition":"conditionA"},{"init_locations":[{"src":"http://localhost:8000/images/2_5.jpg","x":40,"y":76},{"src":"http://localhost:8000/images/2_6.jpg","x":201,"y":76},{"src":"http://localhost:8000/images/2_7.jpg","x":362,"y":76},{"src":"http://localhost:8000/images/2_8.jpg","x":524,"y":76}],"moves":[],"final_locations":[{}],"stars_time":[5009.70000000298],"end_time":[5264.70000000298],"rt":255,"trial_type":"order","trial_index":3,"time_elapsed":5124,"internal_node_id":"0.0-3.0","subject":1688315586422,"condition":"conditionA"},{"init_locations":[{"src":"http://localhost:8000/images/3_1.jpg","x":40,"y":76},{"src":"http://localhost:8000/images/3_2.jpg","x":201,"y":76},{"src":"http://localhost:8000/images/3_3.jpg","x":362,"y":76},{"src":"http://localhost:8000/images/3_4.jpg","x":524,"y":76}],"moves":[],"final_locations":[{}],"stars_time":[5265.70000000298],"end_time":[5473],"rt":207.29999999701977,"trial_type":"order","trial_index":4,"time_elapsed":5333,"internal_node_id":"0.0-4.0","subject":1688315586422,"condition":"conditionA"},{"init_locations":[{"src":"http://localhost:8000/images/3_5.jpg","x":40,"y":76},{"src":"http://localhost:8000/images/3_6.jpg","x":201,"y":76},{"src":"http://localhost:8000/images/3_7.jpg","x":362,"y":76},{"src":"http://localhost:8000/images/3_8.jpg","x":524,"y":76}],"moves":[],"final_locations":[{}],"stars_time":[5473.79999999702],"end_time":[5712.5],"rt":238.70000000298023,"trial_type":"order","trial_index":5,"time_elapsed":5572,"internal_node_id":"0.0-5.0","subject":1688315586422,"condition":"conditionA"},{"init_locations":[{"src":"http://localhost:8000/images/4_1.jpg","x":40,"y":76},{"src":"http://localhost:8000/images/4_2.jpg","x":201,"y":76},{"src":"http://localhost:8000/images/4_3.jpg","x":362,"y":76},{"src":"http://localhost:8000/images/4_4.jpg","x":524,"y":76}],"moves":[],"final_locations":[{}],"stars_time":[5713.4000000059605],"end_time":[5952.600000008941],"rt":239.20000000298023,"trial_type":"order","trial_index":6,"time_elapsed":5812,"internal_node_id":"0.0-6.0","subject":1688315586422,"condition":"conditionA"},{"init_locations":[{"src":"http://localhost:8000/images/4_5.jpg","x":40,"y":76},{"src":"http://localhost:8000/images/4_6.jpg","x":201,"y":76},{"src":"http://localhost:8000/images/4_7.jpg","x":362,"y":76},{"src":"http://localhost:8000/images/4_8.jpg","x":524,"y":76}],"moves":[],"final_locations":[{}],"stars_time":[5953.20000000298],"end_time":[6240.79999999702],"rt":287.59999999403954,"trial_type":"order","trial_index":7,"time_elapsed":6100,"internal_node_id":"0.0-7.0","subject":1688315586422,"condition":"conditionA"},{"init_locations":[{"src":"http://localhost:8000/images/5_1.jpg","x":40,"y":76},{"src":"http://localhost:8000/images/5_2.jpg","x":201,"y":76},{"src":"http://localhost:8000/images/5_3.jpg","x":362,"y":76},{"src":"http://localhost:8000/images/5_4.jpg","x":524,"y":76}],"moves":[],"final_locations":[{}],"stars_time":[6241.600000008941],"end_time":[6496.70000000298],"rt":255.09999999403954,"trial_type":"order","trial_index":8,"time_elapsed":6356,"internal_node_id":"0.0-8.0","subject":1688315586422,"condition":"conditionA"},{"init_locations":[{"src":"http://localhost:8000/images/5_5.jpg","x":40,"y":76},{"src":"http://localhost:8000/images/5_6.jpg","x":201,"y":76},{"src":"http://localhost:8000/images/5_7.jpg","x":362,"y":76},{"src":"http://localhost:8000/images/5_8.jpg","x":524,"y":76}],"moves":[],"final_locations":[{}],"stars_time":[6497.5],"end_time":[6770.100000008941],"rt":272.6000000089407,"trial_type":"order","trial_index":9,"time_elapsed":6630,"internal_node_id":"0.0-9.0","subject":1688315586422,"condition":"conditionA"},{"init_locations":[{"src":"http://localhost:8000/images/6_1.jpg","x":40,"y":76},{"src":"http://localhost:8000/images/6_2.jpg","x":201,"y":76},{"src":"http://localhost:8000/images/6_3.jpg","x":362,"y":76},{"src":"http://localhost:8000/images/6_4.jpg","x":524,"y":76}],"moves":[],"final_locations":[{}],"stars_time":[6771.20000000298],"end_time":[7024.9000000059605],"rt":253.70000000298023,"trial_type":"order","trial_index":10,"time_elapsed":6885,"internal_node_id":"0.0-10.0","subject":1688315586422,"condition":"conditionA"},{"init_locations":[{"src":"http://localhost:8000/images/6_5.jpg","x":40,"y":76},{"src":"http://localhost:8000/images/6_6.jpg","x":201,"y":76},{"src":"http://localhost:8000/images/6_7.jpg","x":362,"y":76},{"src":"http://localhost:8000/images/6_8.jpg","x":524,"y":76}],"moves":[],"final_locations":[{}],"stars_time":[7025.79999999702],"end_time":[7329.100000008941],"rt":303.30000001192093,"trial_type":"order","trial_index":11,"time_elapsed":7189,"internal_node_id":"0.0-11.0","subject":1688315586422,"condition":"conditionA"},{"init_locations":[{"src":"http://localhost:8000/images/7_1.jpg","x":40,"y":76},{"src":"http://localhost:8000/images/7_2.jpg","x":201,"y":76},{"src":"http://localhost:8000/images/7_3.jpg","x":362,"y":76},{"src":"http://localhost:8000/images/7_4.jpg","x":524,"y":76}],"moves":[],"final_locations":[{}],"stars_time":[7329.79999999702],"end_time":[7700.70000000298],"rt":370.90000000596046,"trial_type":"order","trial_index":12,"time_elapsed":7560,"internal_node_id":"0.0-12.0","subject":1688315586422,"condition":"conditionA"},{"init_locations":[{"src":"http://localhost:8000/images/7_5.jpg","x":40,"y":76},{"src":"http://localhost:8000/images/7_6.jpg","x":201,"y":76},{"src":"http://localhost:8000/images/7_7.jpg","x":362,"y":76},{"src":"http://localhost:8000/images/7_8.jpg","x":524,"y":76}],"moves":[],"final_locations":[{}],"stars_time":[7701.29999999702],"end_time":[8084.9000000059605],"rt":383.6000000089407,"trial_type":"order","trial_index":13,"time_elapsed":7944,"internal_node_id":"0.0-13.0","subject":1688315586422,"condition":"conditionA"},{"init_locations":[{"src":"http://localhost:8000/images/8_1.jpg","x":40,"y":76},{"src":"http://localhost:8000/images/8_2.jpg","x":201,"y":76},{"src":"http://localhost:8000/images/8_3.jpg","x":362,"y":76},{"src":"http://localhost:8000/images/8_4.jpg","x":524,"y":76}],"moves":[],"final_locations":[{}],"stars_time":[8085.5],"end_time":[8420.60000000894],"rt":335.1000000089407,"trial_type":"order","trial_index":14,"time_elapsed":8280,"internal_node_id":"0.0-14.0","subject":1688315586422,"condition":"conditionA"},{"init_locations":[{"src":"http://localhost:8000/images/8_5.jpg","x":40,"y":76},{"src":"http://localhost:8000/images/8_6.jpg","x":201,"y":76},{"src":"http://localhost:8000/images/8_7.jpg","x":362,"y":76},{"src":"http://localhost:8000/images/8_8.jpg","x":524,"y":76}],"moves":[],"final_locations":[{}],"stars_time":[8421.29999999702],"end_time":[8948.79999999702],"rt":527.5,"trial_type":"order","trial_index":15,"time_elapsed":8808,"internal_node_id":"0.0-15.0","subject":1688315586422,"condition":"conditionA"},{"init_locations":[{"src":"http://localhost:8000/images/9_1.jpg","x":40,"y":76},{"src":"http://localhost:8000/images/9_2.jpg","x":201,"y":76},{"src":"http://localhost:8000/images/9_3.jpg","x":362,"y":76},{"src":"http://localhost:8000/images/9_4.jpg","x":524,"y":76}],"moves":[],"final_locations":[{}],"stars_time":[8949.60000000894],"end_time":[9548.90000000596],"rt":599.2999999970198,"trial_type":"order","trial_index":16,"time_elapsed":9409,"internal_node_id":"0.0-16.0","subject":1688315586422,"condition":"conditionA"},{"init_locations":[{"src":"http://localhost:8000/images/9_5.jpg","x":40,"y":76},{"src":"http://localhost:8000/images/9_6.jpg","x":201,"y":76},{"src":"http://localhost:8000/images/9_7.jpg","x":362,"y":76},{"src":"http://localhost:8000/images/9_8.jpg","x":524,"y":76}],"moves":[],"final_locations":[{}],"stars_time":[9549.79999999702],"end_time":[10156.5],"rt":606.7000000029802,"trial_type":"order","trial_index":17,"time_elapsed":10016,"internal_node_id":"0.0-17.0","subject":1688315586422,"condition":"conditionA"},{"rt":1690.7000000029802,"stimulus":"<p>How difficult was it to order the pictures?</p>","button_pressed":"2","trial_type":"html-button-response","trial_index":18,"time_elapsed":11708,"internal_node_id":"0.0-18.0","subject":1688315586422,"condition":"conditionA"}]