[{"init_locations":[{"src":"http://34.125.186.26/images/1_1.jpg","x":40,"y":103},{"src":"http://34.125.186.26/images/1_2.jpg","x":201,"y":103},{"src":"http://34.125.186.26/images/1_3.jpg","x":362,"y":103},{"src":"http://34.125.186.26/images/1_4.jpg","x":524,"y":103}],"moves":[{"src":"http://34.125.186.26/images/1_3.jpg","x":362,"y":341,"move_time":1043.2000000029802}],"final_locations":[{"final":{"src":"http://34.125.186.26/images/1_3.jpg","x":362,"y":341,"move_time":1043.2000000029802}}],"stars_time":[974.3999999985099],"end_time":[2901.1999999955297],"rt":1926.7999999970198,"trial_type":"order","trial_index":0,"time_elapsed":1930,"internal_node_id":"0.0-0.0","subject":1688453981432,"condition":"conditionA"},{"init_locations":[{"src":"http://34.125.186.26/images/1_5.jpg","x":40,"y":91},{"src":"http://34.125.186.26/images/1_6.jpg","x":201,"y":91},{"src":"http://34.125.186.26/images/1_7.jpg","x":362,"y":91},{"src":"http://34.125.186.26/images/1_8.jpg","x":524,"y":91}],"moves":[],"final_locations":[{}],"stars_time":[2902.1999999955297],"end_time":[3093.10000000149],"rt":190.90000000596046,"trial_type":"order","trial_index":1,"time_elapsed":2122,"internal_node_id":"0.0-1.0","subject":1688453981432,"condition":"conditionA"},{"init_locations":[{"src":"http://34.125.186.26/images/2_1.jpg","x":40,"y":91},{"src":"http://34.125.186.26/images/2_2.jpg","x":201,"y":91},{"src":"http://34.125.186.26/images/2_3.jpg","x":362,"y":91},{"src":"http://34.125.186.26/images/2_4.jpg","x":524,"y":91}],"moves":[],"final_locations":[{}],"stars_time":[3094.60000000149],"end_time":[3285.2999999970198],"rt":190.69999999552965,"trial_type":"order","trial_index":2,"time_elapsed":2314,"internal_node_id":"0.0-2.0","subject":1688453981432,"condition":"conditionA"},{"init_locations":[{"src":"http://34.125.186.26/images/2_5.jpg","x":40,"y":91},{"src":"http://34.125.186.26/images/2_6.jpg","x":201,"y":91},{"src":"http://34.125.186.26/images/2_7.jpg","x":362,"y":91},{"src":"http://34.125.186.26/images/2_8.jpg","x":524,"y":91}],"moves":[],"final_locations":[{}],"stars_time":[3286.39999999851],"end_time":[3477.39999999851],"rt":191,"trial_type":"order","trial_index":3,"time_elapsed":2506,"internal_node_id":"0.0-3.0","subject":1688453981432,"condition":"conditionA"},{"init_locations":[{"src":"http://34.125.186.26/images/3_1.jpg","x":40,"y":91},{"src":"http://34.125.186.26/images/3_2.jpg","x":201,"y":91},{"src":"http://34.125.186.26/images/3_3.jpg","x":362,"y":91},{"src":"http://34.125.186.26/images/3_4.jpg","x":524,"y":91}],"moves":[],"final_locations":[{}],"stars_time":[3478.39999999851],"end_time":[3653.2999999970198],"rt":174.89999999850988,"trial_type":"order","trial_index":4,"time_elapsed":2682,"internal_node_id":"0.0-4.0","subject":1688453981432,"condition":"conditionA"},{"init_locations":[{"src":"http://34.125.186.26/images/3_5.jpg","x":40,"y":91},{"src":"http://34.125.186.26/images/3_6.jpg","x":201,"y":91},{"src":"http://34.125.186.26/images/3_7.jpg","x":362,"y":91},{"src":"http://34.125.186.26/images/3_8.jpg","x":524,"y":91}],"moves":[],"final_locations":[{}],"stars_time":[3654.2999999970198],"end_time":[3845.10000000149],"rt":190.80000000447035,"trial_type":"order","trial_index":5,"time_elapsed":2874,"internal_node_id":"0.0-5.0","subject":1688453981432,"condition":"conditionA"},{"init_locations":[{"src":"http://34.125.186.26/images/4_1.jpg","x":40,"y":91},{"src":"http://34.125.186.26/images/4_2.jpg","x":201,"y":91},{"src":"http://34.125.186.26/images/4_3.jpg","x":362,"y":91},{"src":"http://34.125.186.26/images/4_4.jpg","x":524,"y":91}],"moves":[],"final_locations":[{}],"stars_time":[3846.10000000149],"end_time":[4037.2999999970198],"rt":191.19999999552965,"trial_type":"order","trial_index":6,"time_elapsed":3066,"internal_node_id":"0.0-6.0","subject":1688453981432,"condition":"conditionA"},{"init_locations":[{"src":"http://34.125.186.26/images/4_5.jpg","x":40,"y":91},{"src":"http://34.125.186.26/images/4_6.jpg","x":201,"y":91},{"src":"http://34.125.186.26/images/4_7.jpg","x":362,"y":91},{"src":"http://34.125.186.26/images/4_8.jpg","x":524,"y":91}],"moves":[],"final_locations":[{}],"stars_time":[4038.2999999970198],"end_time":[4229.5],"rt":191.20000000298023,"trial_type":"order","trial_index":7,"time_elapsed":3258,"internal_node_id":"0.0-7.0","subject":1688453981432,"condition":"conditionA"},{"init_locations":[{"src":"http://34.125.186.26/images/5_1.jpg","x":40,"y":91},{"src":"http://34.125.186.26/images/5_2.jpg","x":201,"y":91},{"src":"http://34.125.186.26/images/5_3.jpg","x":362,"y":91},{"src":"http://34.125.186.26/images/5_4.jpg","x":524,"y":91}],"moves":[],"final_locations":[{}],"stars_time":[4230.60000000149],"end_time":[4421.5],"rt":190.89999999850988,"trial_type":"order","trial_index":8,"time_elapsed":3450,"internal_node_id":"0.0-8.0","subject":1688453981432,"condition":"conditionA"},{"init_locations":[{"src":"http://34.125.186.26/images/5_5.jpg","x":40,"y":91},{"src":"http://34.125.186.26/images/5_6.jpg","x":201,"y":91},{"src":"http://34.125.186.26/images/5_7.jpg","x":362,"y":91},{"src":"http://34.125.186.26/images/5_8.jpg","x":524,"y":91}],"moves":[],"final_locations":[{}],"stars_time":[4422.5],"end_time":[4645.10000000149],"rt":222.60000000149012,"trial_type":"order","trial_index":9,"time_elapsed":3674,"internal_node_id":"0.0-9.0","subject":1688453981432,"condition":"conditionA"},{"init_locations":[{"src":"http://34.125.186.26/images/6_1.jpg","x":40,"y":91},{"src":"http://34.125.186.26/images/6_2.jpg","x":201,"y":91},{"src":"http://34.125.186.26/images/6_3.jpg","x":362,"y":91},{"src":"http://34.125.186.26/images/6_4.jpg","x":524,"y":91}],"moves":[],"final_locations":[{}],"stars_time":[4646.19999999553],"end_time":[4841.29999999702],"rt":195.10000000149012,"trial_type":"order","trial_index":10,"time_elapsed":3870,"internal_node_id":"0.0-10.0","subject":1688453981432,"condition":"conditionA"},{"init_locations":[{"src":"http://34.125.186.26/images/6_5.jpg","x":40,"y":91},{"src":"http://34.125.186.26/images/6_6.jpg","x":201,"y":91},{"src":"http://34.125.186.26/images/6_7.jpg","x":362,"y":91},{"src":"http://34.125.186.26/images/6_8.jpg","x":524,"y":91}],"moves":[],"final_locations":[{}],"stars_time":[4842.39999999851],"end_time":[5046],"rt":203.60000000149012,"trial_type":"order","trial_index":11,"time_elapsed":4075,"internal_node_id":"0.0-11.0","subject":1688453981432,"condition":"conditionA"},{"init_locations":[{"src":"http://34.125.186.26/images/7_1.jpg","x":40,"y":91},{"src":"http://34.125.186.26/images/7_2.jpg","x":201,"y":91},{"src":"http://34.125.186.26/images/7_3.jpg","x":362,"y":91},{"src":"http://34.125.186.26/images/7_4.jpg","x":524,"y":91}],"moves":[],"final_locations":[{}],"stars_time":[5046.89999999851],"end_time":[5237.69999999553],"rt":190.79999999701977,"trial_type":"order","trial_index":12,"time_elapsed":4267,"internal_node_id":"0.0-12.0","subject":1688453981432,"condition":"conditionA"},{"init_locations":[{"src":"http://34.125.186.26/images/7_5.jpg","x":40,"y":91},{"src":"http://34.125.186.26/images/7_6.jpg","x":201,"y":91},{"src":"http://34.125.186.26/images/7_7.jpg","x":362,"y":91},{"src":"http://34.125.186.26/images/7_8.jpg","x":524,"y":91}],"moves":[],"final_locations":[{}],"stars_time":[5238.60000000149],"end_time":[5433.29999999702],"rt":194.69999999552965,"trial_type":"order","trial_index":13,"time_elapsed":4462,"internal_node_id":"0.0-13.0","subject":1688453981432,"condition":"conditionA"},{"init_locations":[{"src":"http://34.125.186.26/images/8_1.jpg","x":40,"y":91},{"src":"http://34.125.186.26/images/8_2.jpg","x":201,"y":91},{"src":"http://34.125.186.26/images/8_3.jpg","x":362,"y":91},{"src":"http://34.125.186.26/images/8_4.jpg","x":524,"y":91}],"moves":[],"final_locations":[{}],"stars_time":[5434.29999999702],"end_time":[5641.29999999702],"rt":207,"trial_type":"order","trial_index":14,"time_elapsed":4670,"internal_node_id":"0.0-14.0","subject":1688453981432,"condition":"conditionA"},{"init_locations":[{"src":"http://34.125.186.26/images/8_5.jpg","x":40,"y":91},{"src":"http://34.125.186.26/images/8_6.jpg","x":201,"y":91},{"src":"http://34.125.186.26/images/8_7.jpg","x":362,"y":91},{"src":"http://34.125.186.26/images/8_8.jpg","x":524,"y":91}],"moves":[],"final_locations":[{}],"stars_time":[5642.5],"end_time":[5849.19999999553],"rt":206.69999999552965,"trial_type":"order","trial_index":15,"time_elapsed":4878,"internal_node_id":"0.0-15.0","subject":1688453981432,"condition":"conditionA"},{"init_locations":[{"src":"http://34.125.186.26/images/9_1.jpg","x":40,"y":91},{"src":"http://34.125.186.26/images/9_2.jpg","x":201,"y":91},{"src":"http://34.125.186.26/images/9_3.jpg","x":362,"y":91},{"src":"http://34.125.186.26/images/9_4.jpg","x":524,"y":91}],"moves":[],"final_locations":[{}],"stars_time":[5850.10000000149],"end_time":[6041.39999999851],"rt":191.29999999701977,"trial_type":"order","trial_index":16,"time_elapsed":5070,"internal_node_id":"0.0-16.0","subject":1688453981432,"condition":"conditionA"},{"init_locations":[{"src":"http://34.125.186.26/images/9_5.jpg","x":40,"y":91},{"src":"http://34.125.186.26/images/9_6.jpg","x":201,"y":91},{"src":"http://34.125.186.26/images/9_7.jpg","x":362,"y":91},{"src":"http://34.125.186.26/images/9_8.jpg","x":524,"y":91}],"moves":[],"final_locations":[{}],"stars_time":[6042.79999999702],"end_time":[6249],"rt":206.20000000298023,"trial_type":"order","trial_index":17,"time_elapsed":5278,"internal_node_id":"0.0-17.0","subject":1688453981432,"condition":"conditionA"},{"rt":1504.0999999940395,"stimulus":"<p>How difficult was it to order the pictures?</p>","button_pressed":"2","trial_type":"html-button-response","trial_index":18,"time_elapsed":6783,"internal_node_id":"0.0-18.0","subject":1688453981432,"condition":"conditionA"}]