[{"init_locations":[{"src":"http://localhost:8000/images/1_1.jpg","x":40,"y":87},{"src":"http://localhost:8000/images/1_2.jpg","x":201,"y":87},{"src":"http://localhost:8000/images/1_3.jpg","x":362,"y":87},{"src":"http://localhost:8000/images/1_4.jpg","x":524,"y":87}],"moves":[{"src":"http://localhost:8000/images/1_3.jpg","x":524,"y":325,"move_time":1461.1000000089407},{"src":"http://localhost:8000/images/1_4.jpg","x":362,"y":325,"move_time":2195.199999988079}],"final_locations":[{"final":{"src":"http://localhost:8000/images/1_4.jpg","x":362,"y":325,"move_time":2195.199999988079}}],"stars_time":[1954.7000000029802],"end_time":[7344.70000000298],"rt":5390,"trial_type":"order","trial_index":0,"time_elapsed":5397,"internal_node_id":"0.0-0.0","subject":1688314911284,"condition":"conditionC"},{"init_locations":[{"src":"http://localhost:8000/images/1_5.jpg","x":40,"y":76},{"src":"http://localhost:8000/images/1_6.jpg","x":201,"y":76},{"src":"http://localhost:8000/images/1_7.jpg","x":362,"y":76},{"src":"http://localhost:8000/images/1_8.jpg","x":524,"y":76}],"moves":[],"final_locations":[{}],"stars_time":[7346.100000008941],"end_time":[7536.4000000059605],"rt":190.29999999701977,"trial_type":"order","trial_index":1,"time_elapsed":5589,"internal_node_id":"0.0-1.0","subject":1688314911284,"condition":"conditionC"},{"init_locations":[{"src":"http://localhost:8000/images/2_1.jpg","x":40,"y":76},{"src":"http://localhost:8000/images/2_2.jpg","x":201,"y":76},{"src":"http://localhost:8000/images/2_3.jpg","x":362,"y":76},{"src":"http://localhost:8000/images/2_4.jpg","x":524,"y":76}],"moves":[],"final_locations":[{}],"stars_time":[7537.600000008941],"end_time":[7743.800000011921],"rt":206.20000000298023,"trial_type":"order","trial_index":2,"time_elapsed":5796,"internal_node_id":"0.0-2.0","subject":1688314911284,"condition":"conditionC"},{"init_locations":[{"src":"http://localhost:8000/images/2_5.jpg","x":40,"y":76},{"src":"http://localhost:8000/images/2_6.jpg","x":201,"y":76},{"src":"http://localhost:8000/images/2_7.jpg","x":362,"y":76},{"src":"http://localhost:8000/images/2_8.jpg","x":524,"y":76}],"moves":[],"final_locations":[{}],"stars_time":[7744.600000008941],"end_time":[7956.300000011921],"rt":211.70000000298023,"trial_type":"order","trial_index":3,"time_elapsed":6009,"internal_node_id":"0.0-3.0","subject":1688314911284,"condition":"conditionC"},{"init_locations":[{"src":"http://localhost:8000/images/3_1.jpg","x":40,"y":76},{"src":"http://localhost:8000/images/3_2.jpg","x":201,"y":76},{"src":"http://localhost:8000/images/3_3.jpg","x":362,"y":76},{"src":"http://localhost:8000/images/3_4.jpg","x":524,"y":76}],"moves":[],"final_locations":[{}],"stars_time":[7957.300000011921],"end_time":[8148.100000008941],"rt":190.79999999701977,"trial_type":"order","trial_index":4,"time_elapsed":6200,"internal_node_id":"0.0-4.0","subject":1688314911284,"condition":"conditionC"},{"init_locations":[{"src":"http://localhost:8000/images/3_5.jpg","x":40,"y":76},{"src":"http://localhost:8000/images/3_6.jpg","x":201,"y":76},{"src":"http://localhost:8000/images/3_7.jpg","x":362,"y":76},{"src":"http://localhost:8000/images/3_8.jpg","x":524,"y":76}],"moves":[],"final_locations":[{}],"stars_time":[8148.800000011921],"end_time":[8372.10000000894],"rt":223.29999999701977,"trial_type":"order","trial_index":5,"time_elapsed":6424,"internal_node_id":"0.0-5.0","subject":1688314911284,"condition":"conditionC"},{"init_locations":[{"src":"http://localhost:8000/images/4_1.jpg","x":40,"y":76},{"src":"http://localhost:8000/images/4_2.jpg","x":201,"y":76},{"src":"http://localhost:8000/images/4_3.jpg","x":362,"y":76},{"src":"http://localhost:8000/images/4_4.jpg","x":524,"y":76}],"moves":[],"final_locations":[{}],"stars_time":[8373],"end_time":[8580.300000011921],"rt":207.30000001192093,"trial_type":"order","trial_index":6,"time_elapsed":6632,"internal_node_id":"0.0-6.0","subject":1688314911284,"condition":"conditionC"},{"init_locations":[{"src":"http://localhost:8000/images/4_5.jpg","x":40,"y":76},{"src":"http://localhost:8000/images/4_6.jpg","x":201,"y":76},{"src":"http://localhost:8000/images/4_7.jpg","x":362,"y":76},{"src":"http://localhost:8000/images/4_8.jpg","x":524,"y":76}],"moves":[],"final_locations":[{}],"stars_time":[8581.20000000298],"end_time":[8788.70000000298],"rt":207.5,"trial_type":"order","trial_index":7,"time_elapsed":6841,"internal_node_id":"0.0-7.0","subject":1688314911284,"condition":"conditionC"},{"init_locations":[{"src":"http://localhost:8000/images/5_1.jpg","x":40,"y":76},{"src":"http://localhost:8000/images/5_2.jpg","x":201,"y":76},{"src":"http://localhost:8000/images/5_3.jpg","x":362,"y":76},{"src":"http://localhost:8000/images/5_4.jpg","x":524,"y":76}],"moves":[],"final_locations":[{}],"stars_time":[8789.60000000894],"end_time":[8996.20000000298],"rt":206.59999999403954,"trial_type":"order","trial_index":8,"time_elapsed":7048,"internal_node_id":"0.0-8.0","subject":1688314911284,"condition":"conditionC"},{"init_locations":[{"src":"http://localhost:8000/images/5_5.jpg","x":40,"y":76},{"src":"http://localhost:8000/images/5_6.jpg","x":201,"y":76},{"src":"http://localhost:8000/images/5_7.jpg","x":362,"y":76},{"src":"http://localhost:8000/images/5_8.jpg","x":524,"y":76}],"moves":[],"final_locations":[{}],"stars_time":[8997.20000000298],"end_time":[9205.800000011921],"rt":208.6000000089407,"trial_type":"order","trial_index":9,"time_elapsed":7258,"internal_node_id":"0.0-9.0","subject":1688314911284,"condition":"conditionC"},{"init_locations":[{"src":"http://localhost:8000/images/6_1.jpg","x":40,"y":76},{"src":"http://localhost:8000/images/6_2.jpg","x":201,"y":76},{"src":"http://localhost:8000/images/6_3.jpg","x":362,"y":76},{"src":"http://localhost:8000/images/6_4.jpg","x":524,"y":76}],"moves":[],"final_locations":[{}],"stars_time":[9206.60000000894],"end_time":[9411.90000000596],"rt":205.29999999701977,"trial_type":"order","trial_index":10,"time_elapsed":7464,"internal_node_id":"0.0-10.0","subject":1688314911284,"condition":"conditionC"},{"init_locations":[{"src":"http://localhost:8000/images/6_5.jpg","x":40,"y":76},{"src":"http://localhost:8000/images/6_6.jpg","x":201,"y":76},{"src":"http://localhost:8000/images/6_7.jpg","x":362,"y":76},{"src":"http://localhost:8000/images/6_8.jpg","x":524,"y":76}],"moves":[],"final_locations":[{}],"stars_time":[9412.5],"end_time":[9652.5],"rt":240,"trial_type":"order","trial_index":11,"time_elapsed":7705,"internal_node_id":"0.0-11.0","subject":1688314911284,"condition":"conditionC"},{"init_locations":[{"src":"http://localhost:8000/images/7_1.jpg","x":40,"y":76},{"src":"http://localhost:8000/images/7_2.jpg","x":201,"y":76},{"src":"http://localhost:8000/images/7_3.jpg","x":362,"y":76},{"src":"http://localhost:8000/images/7_4.jpg","x":524,"y":76}],"moves":[],"final_locations":[{}],"stars_time":[9653.300000011921],"end_time":[9876.40000000596],"rt":223.09999999403954,"trial_type":"order","trial_index":12,"time_elapsed":7928,"internal_node_id":"0.0-12.0","subject":1688314911284,"condition":"conditionC"},{"init_locations":[{"src":"http://localhost:8000/images/7_5.jpg","x":40,"y":76},{"src":"http://localhost:8000/images/7_6.jpg","x":201,"y":76},{"src":"http://localhost:8000/images/7_7.jpg","x":362,"y":76},{"src":"http://localhost:8000/images/7_8.jpg","x":524,"y":76}],"moves":[],"final_locations":[{}],"stars_time":[9877],"end_time":[10100.60000000894],"rt":223.6000000089407,"trial_type":"order","trial_index":13,"time_elapsed":8153,"internal_node_id":"0.0-13.0","subject":1688314911284,"condition":"conditionC"},{"init_locations":[{"src":"http://localhost:8000/images/8_1.jpg","x":40,"y":76},{"src":"http://localhost:8000/images/8_2.jpg","x":201,"y":76},{"src":"http://localhost:8000/images/8_3.jpg","x":362,"y":76},{"src":"http://localhost:8000/images/8_4.jpg","x":524,"y":76}],"moves":[],"final_locations":[{}],"stars_time":[10101.300000011921],"end_time":[10340.70000000298],"rt":239.3999999910593,"trial_type":"order","trial_index":14,"time_elapsed":8393,"internal_node_id":"0.0-14.0","subject":1688314911284,"condition":"conditionC"},{"init_locations":[{"src":"http://localhost:8000/images/8_5.jpg","x":40,"y":76},{"src":"http://localhost:8000/images/8_6.jpg","x":201,"y":76},{"src":"http://localhost:8000/images/8_7.jpg","x":362,"y":76},{"src":"http://localhost:8000/images/8_8.jpg","x":524,"y":76}],"moves":[],"final_locations":[{}],"stars_time":[10342.10000000894],"end_time":[10564.40000000596],"rt":222.29999999701977,"trial_type":"order","trial_index":15,"time_elapsed":8617,"internal_node_id":"0.0-15.0","subject":1688314911284,"condition":"conditionC"},{"init_locations":[{"src":"http://localhost:8000/images/9_1.jpg","x":40,"y":76},{"src":"http://localhost:8000/images/9_2.jpg","x":201,"y":76},{"src":"http://localhost:8000/images/9_3.jpg","x":362,"y":76},{"src":"http://localhost:8000/images/9_4.jpg","x":524,"y":76}],"moves":[],"final_locations":[{}],"stars_time":[10565.10000000894],"end_time":[10776.10000000894],"rt":211,"trial_type":"order","trial_index":16,"time_elapsed":8828,"internal_node_id":"0.0-16.0","subject":1688314911284,"condition":"conditionC"},{"init_locations":[{"src":"http://localhost:8000/images/9_5.jpg","x":40,"y":76},{"src":"http://localhost:8000/images/9_6.jpg","x":201,"y":76},{"src":"http://localhost:8000/images/9_7.jpg","x":362,"y":76},{"src":"http://localhost:8000/images/9_8.jpg","x":524,"y":76}],"moves":[],"final_locations":[{}],"stars_time":[10776.70000000298],"end_time":[10984.10000000894],"rt":207.40000000596046,"trial_type":"order","trial_index":17,"time_elapsed":9036,"internal_node_id":"0.0-17.0","subject":1688314911284,"condition":"conditionC"},{"rt":1283.5999999940395,"stimulus":"<p>How difficult was it to order the pictures?</p>","button_pressed":"2","trial_type":"html-button-response","trial_index":18,"time_elapsed":10321,"internal_node_id":"0.0-18.0","subject":1688314911284,"condition":"conditionC"}]