[{"init_locations":[{"src":"http://localhost:8000/images/2_5.jpg","x":317,"y":87},{"src":"http://localhost:8000/images/2_6.jpg","x":478,"y":87},{"src":"http://localhost:8000/images/2_7.jpg","x":640,"y":87},{"src":"http://localhost:8000/images/2_8.jpg","x":801,"y":87}],"moves":[{"src":"http://localhost:8000/images/2_5.jpg","x":317,"y":325,"move_time":1454.2999999970198},{"src":"http://localhost:8000/images/2_6.jpg","x":317,"y":325,"move_time":781.4000000022352},{"src":"http://localhost:8000/images/2_7.jpg","x":640,"y":325,"move_time":867.3999999985099}],"final_locations":[{"final":{"src":"http://localhost:8000/images/2_7.jpg","x":640,"y":325,"move_time":867.3999999985099}}],"stars_time":[377.70000000298023],"end_time":[5125.400000002235],"rt":4747.699999999255,"trial_type":"order","trial_index":0,"time_elapsed":4752,"internal_node_id":"0.0-0.0","subject":1688417200958,"condition":"conditionB"},{"rt":1039.5,"stimulus":"<p>How difficult was it to order the pictures?</p>","button_pressed":"2","trial_type":"html-button-response","trial_index":1,"time_elapsed":5794,"internal_node_id":"0.0-1.0","subject":1688417200958,"condition":"conditionB"},{"rt":13928.60000000149,"responses":"{\"Q0\":\"it was hard\"}","trial_type":"survey-text","trial_index":2,"time_elapsed":19725,"internal_node_id":"0.0-2.0","subject":1688417200958,"condition":"conditionB"},{"init_locations":[{"src":"http://localhost:8000/images/7_1.jpg","x":317,"y":87},{"src":"http://localhost:8000/images/7_2.jpg","x":478,"y":87},{"src":"http://localhost:8000/images/7_4.jpg","x":640,"y":87},{"src":"http://localhost:8000/images/7_3.jpg","x":801,"y":87}],"moves":[{"src":"http://localhost:8000/images/7_2.jpg","x":478,"y":325,"move_time":1131.1000000014901},{"src":"http://localhost:8000/images/7_1.jpg","x":317,"y":325,"move_time":783.8999999985099},{"src":"http://localhost:8000/images/7_4.jpg","x":640,"y":325,"move_time":822.5}],"final_locations":[{"final":{"src":"http://localhost:8000/images/7_4.jpg","x":640,"y":325,"move_time":822.5}}],"stars_time":[20098.800000000745],"end_time":[23598.20000000298],"rt":3499.400000002235,"trial_type":"order","trial_index":3,"time_elapsed":23225,"internal_node_id":"0.0-3.0","subject":1688417200958,"condition":"conditionB"},{"rt":830,"stimulus":"<p>How difficult was it to order the pictures?</p>","button_pressed":"0","trial_type":"html-button-response","trial_index":4,"time_elapsed":24056,"internal_node_id":"0.0-4.0","subject":1688417200958,"condition":"conditionB"},{"rt":5154.900000002235,"responses":"{\"Q0\":\"it was is\"}","trial_type":"survey-text","trial_index":5,"time_elapsed":29213,"internal_node_id":"0.0-5.0","subject":1688417200958,"condition":"conditionB"},{"init_locations":[{"src":"http://localhost:8000/images/5_4.jpg","x":317,"y":87},{"src":"http://localhost:8000/images/5_1.jpg","x":478,"y":87},{"src":"http://localhost:8000/images/5_3.jpg","x":640,"y":87},{"src":"http://localhost:8000/images/5_2.jpg","x":801,"y":87}],"moves":[{"src":"http://localhost:8000/images/5_1.jpg","x":478,"y":325,"move_time":803.5},{"src":"http://localhost:8000/images/5_4.jpg","x":317,"y":325,"move_time":545.2000000029802},{"src":"http://localhost:8000/images/5_3.jpg","x":640,"y":325,"move_time":654},{"src":"http://localhost:8000/images/5_2.jpg","x":801,"y":325,"move_time":818.8999999985099}],"final_locations":[{"final":{"src":"http://localhost:8000/images/5_2.jpg","x":801,"y":325,"move_time":818.8999999985099}}],"stars_time":[29586.5],"end_time":[33013.5],"rt":3427,"trial_type":"order","trial_index":6,"time_elapsed":32640,"internal_node_id":"0.0-6.0","subject":1688417200958,"condition":"conditionB"},{"rt":1039.4000000022352,"stimulus":"<p>How difficult was it to order the pictures?</p>","button_pressed":"1","trial_type":"html-button-response","trial_index":7,"time_elapsed":33680,"internal_node_id":"0.0-7.0","subject":1688417200958,"condition":"conditionB"},{"rt":3438.2000000029802,"responses":"{\"Q0\":\"sondo\"}","trial_type":"survey-text","trial_index":8,"time_elapsed":37120,"internal_node_id":"0.0-8.0","subject":1688417200958,"condition":"conditionB"},{"init_locations":[{"src":"http://localhost:8000/images/1_4.jpg","x":317,"y":87},{"src":"http://localhost:8000/images/1_3.jpg","x":478,"y":87},{"src":"http://localhost:8000/images/1_2.jpg","x":640,"y":87},{"src":"http://localhost:8000/images/1_1.jpg","x":801,"y":87}],"moves":[{"src":"http://localhost:8000/images/1_3.jpg","x":478,"y":325,"move_time":884.6000000014901},{"src":"http://localhost:8000/images/1_4.jpg","x":317,"y":325,"move_time":1079.199999999255},{"src":"http://localhost:8000/images/1_2.jpg","x":640,"y":325,"move_time":684.0999999977648},{"src":"http://localhost:8000/images/1_1.jpg","x":801,"y":325,"move_time":546}],"final_locations":[{"final":{"src":"http://localhost:8000/images/1_1.jpg","x":801,"y":325,"move_time":546}}],"stars_time":[37493.60000000149],"end_time":[41289.5],"rt":3795.89999999851,"trial_type":"order","trial_index":9,"time_elapsed":40916,"internal_node_id":"0.0-9.0","subject":1688417200958,"condition":"conditionB"},{"rt":1031.199999999255,"stimulus":"<p>How difficult was it to order the pictures?</p>","button_pressed":"1","trial_type":"html-button-response","trial_index":10,"time_elapsed":41948,"internal_node_id":"0.0-10.0","subject":1688417200958,"condition":"conditionB"},{"rt":3254.60000000149,"responses":"{\"Q0\":\"elven\"}","trial_type":"survey-text","trial_index":11,"time_elapsed":45204,"internal_node_id":"0.0-11.0","subject":1688417200958,"condition":"conditionB"},{"init_locations":[{"src":"http://localhost:8000/images/6_5.jpg","x":317,"y":87},{"src":"http://localhost:8000/images/6_6.jpg","x":478,"y":87},{"src":"http://localhost:8000/images/6_7.jpg","x":640,"y":87},{"src":"http://localhost:8000/images/6_8.jpg","x":801,"y":87}],"moves":[{"src":"http://localhost:8000/images/6_5.jpg","x":478,"y":325,"move_time":771.6999999992549},{"src":"http://localhost:8000/images/6_6.jpg","x":317,"y":325,"move_time":761.2000000029802},{"src":"http://localhost:8000/images/6_7.jpg","x":801,"y":325,"move_time":691.8999999985099},{"src":"http://localhost:8000/images/6_8.jpg","x":640,"y":325,"move_time":798.5}],"final_locations":[{"final":{"src":"http://localhost:8000/images/6_8.jpg","x":640,"y":325,"move_time":798.5}}],"stars_time":[45578.300000000745],"end_time":[49205.20000000298],"rt":3626.900000002235,"trial_type":"order","trial_index":12,"time_elapsed":48832,"internal_node_id":"0.0-12.0","subject":1688417200958,"condition":"conditionB"},{"rt":1083.5,"stimulus":"<p>How difficult was it to order the pictures?</p>","button_pressed":"1","trial_type":"html-button-response","trial_index":13,"time_elapsed":49916,"internal_node_id":"0.0-13.0","subject":1688417200958,"condition":"conditionB"},{"rt":4863.400000002235,"responses":"{\"Q0\":\"fross\"}","trial_type":"survey-text","trial_index":14,"time_elapsed":54780,"internal_node_id":"0.0-14.0","subject":1688417200958,"condition":"conditionB"},{"init_locations":[{"src":"http://localhost:8000/images/4_5.jpg","x":317,"y":87},{"src":"http://localhost:8000/images/4_6.jpg","x":478,"y":87},{"src":"http://localhost:8000/images/4_7.jpg","x":640,"y":87},{"src":"http://localhost:8000/images/4_8.jpg","x":801,"y":87}],"moves":[{"src":"http://localhost:8000/images/4_5.jpg","x":317,"y":325,"move_time":836.1999999992549},{"src":"http://localhost:8000/images/4_6.jpg","x":317,"y":325,"move_time":594.5},{"src":"http://localhost:8000/images/4_7.jpg","x":640,"y":325,"move_time":769.1999999992549},{"src":"http://localhost:8000/images/4_5.jpg","x":640,"y":325,"move_time":785.3000000007451}],"final_locations":[{"final":{"src":"http://localhost:8000/images/4_5.jpg","x":640,"y":325,"move_time":785.3000000007451}}],"stars_time":[55154.400000002235],"end_time":[59349.70000000298],"rt":4195.300000000745,"trial_type":"order","trial_index":15,"time_elapsed":58976,"internal_node_id":"0.0-15.0","subject":1688417200958,"condition":"conditionB"},{"rt":1995.1000000014901,"stimulus":"<p>How difficult was it to order the pictures?</p>","button_pressed":"1","trial_type":"html-button-response","trial_index":16,"time_elapsed":60972,"internal_node_id":"0.0-16.0","subject":1688417200958,"condition":"conditionB"},{"rt":4623.199999999255,"responses":"{\"Q0\":\"chona\"}","trial_type":"survey-text","trial_index":17,"time_elapsed":65596,"internal_node_id":"0.0-17.0","subject":1688417200958,"condition":"conditionB"},{"init_locations":[{"src":"http://localhost:8000/images/9_3.jpg","x":317,"y":87},{"src":"http://localhost:8000/images/9_1.jpg","x":478,"y":87},{"src":"http://localhost:8000/images/9_2.jpg","x":640,"y":87},{"src":"http://localhost:8000/images/9_4.jpg","x":801,"y":87}],"moves":[{"src":"http://localhost:8000/images/9_1.jpg","x":478,"y":325,"move_time":983.7999999970198}],"final_locations":[{"final":{"src":"http://localhost:8000/images/9_1.jpg","x":478,"y":325,"move_time":983.7999999970198}}],"stars_time":[65970.70000000298],"end_time":[67829.5],"rt":1858.7999999970198,"trial_type":"order","trial_index":18,"time_elapsed":67455,"internal_node_id":"0.0-18.0","subject":1688417200958,"condition":"conditionB"},{"rt":783.5,"stimulus":"<p>How difficult was it to order the pictures?</p>","button_pressed":"2","trial_type":"html-button-response","trial_index":19,"time_elapsed":68240,"internal_node_id":"0.0-19.0","subject":1688417200958,"condition":"conditionB"},{"rt":1346.4000000022352,"responses":"{\"Q0\":\"\"}","trial_type":"survey-text","trial_index":20,"time_elapsed":69588,"internal_node_id":"0.0-20.0","subject":1688417200958,"condition":"conditionB"},{"init_locations":[{"src":"http://localhost:8000/images/3_1.jpg","x":317,"y":87},{"src":"http://localhost:8000/images/3_3.jpg","x":478,"y":87},{"src":"http://localhost:8000/images/3_4.jpg","x":640,"y":87},{"src":"http://localhost:8000/images/3_2.jpg","x":801,"y":87}],"moves":[{"src":"http://localhost:8000/images/3_1.jpg","x":317,"y":325,"move_time":868.8000000007451},{"src":"http://localhost:8000/images/3_3.jpg","x":317,"y":325,"move_time":510.79999999701977}],"final_locations":[{"final":{"src":"http://localhost:8000/images/3_3.jpg","x":317,"y":325,"move_time":510.79999999701977}}],"stars_time":[69962.40000000224],"end_time":[72429.10000000149],"rt":2466.699999999255,"trial_type":"order","trial_index":21,"time_elapsed":72055,"internal_node_id":"0.0-21.0","subject":1688417200958,"condition":"conditionB"},{"rt":831.5999999977648,"stimulus":"<p>How difficult was it to order the pictures?</p>","button_pressed":"1","trial_type":"html-button-response","trial_index":22,"time_elapsed":72887,"internal_node_id":"0.0-22.0","subject":1688417200958,"condition":"conditionB"},{"rt":750.8999999985099,"responses":"{\"Q0\":\"\"}","trial_type":"survey-text","trial_index":23,"time_elapsed":73639,"internal_node_id":"0.0-23.0","subject":1688417200958,"condition":"conditionB"},{"init_locations":[{"src":"http://localhost:8000/images/8_5.jpg","x":317,"y":87},{"src":"http://localhost:8000/images/8_6.jpg","x":478,"y":87},{"src":"http://localhost:8000/images/8_7.jpg","x":640,"y":87},{"src":"http://localhost:8000/images/8_8.jpg","x":801,"y":87}],"moves":[],"final_locations":[{}],"stars_time":[74013.90000000224],"end_time":[75489.70000000298],"rt":1475.800000000745,"trial_type":"order","trial_index":24,"time_elapsed":75116,"internal_node_id":"0.0-24.0","subject":1688417200958,"condition":"conditionB"},{"rt":911,"stimulus":"<p>How difficult was it to order the pictures?</p>","button_pressed":"2","trial_type":"html-button-response","trial_index":25,"time_elapsed":76028,"internal_node_id":"0.0-25.0","subject":1688417200958,"condition":"conditionB"},{"rt":526.9000000022352,"responses":"{\"Q0\":\"\"}","trial_type":"survey-text","trial_index":26,"time_elapsed":76556,"internal_node_id":"0.0-26.0","subject":1688417200958,"condition":"conditionB"}]