[{"init_locations":[{"src":"http://localhost:8000/images/1_1.jpg","x":40,"y":87},{"src":"http://localhost:8000/images/1_2.jpg","x":201,"y":87},{"src":"http://localhost:8000/images/1_3.jpg","x":362,"y":87},{"src":"http://localhost:8000/images/1_4.jpg","x":524,"y":87}],"moves":[{"src":"http://localhost:8000/images/1_1.jpg","x":40,"y":325,"move_time":1787.9000000059605},{"src":"http://localhost:8000/images/1_2.jpg","x":201,"y":325,"move_time":866.7999999970198},{"src":"http://localhost:8000/images/1_3.jpg","x":362,"y":325,"move_time":750.3999999910593},{"src":"http://localhost:8000/images/1_4.jpg","x":524,"y":325,"move_time":917.2000000029802}],"final_locations":[{"final":{"src":"http://localhost:8000/images/1_4.jpg","x":524,"y":325,"move_time":917.2000000029802}}],"stars_time":[134.70000000298023],"end_time":[5537.29999999702],"rt":5402.5999999940395,"trial_type":"order","trial_index":0,"time_elapsed":5406,"internal_node_id":"0.0-0.0","subject":1688316071026,"condition":"conditionB"},{"init_locations":[{"src":"http://localhost:8000/images/1_5.jpg","x":40,"y":76},{"src":"http://localhost:8000/images/1_6.jpg","x":201,"y":76},{"src":"http://localhost:8000/images/1_7.jpg","x":362,"y":76},{"src":"http://localhost:8000/images/1_8.jpg","x":524,"y":76}],"moves":[],"final_locations":[{}],"stars_time":[5538.70000000298],"end_time":[5728.20000000298],"rt":189.5,"trial_type":"order","trial_index":1,"time_elapsed":5597,"internal_node_id":"0.0-1.0","subject":1688316071026,"condition":"conditionB"},{"init_locations":[{"src":"http://localhost:8000/images/2_1.jpg","x":40,"y":76},{"src":"http://localhost:8000/images/2_2.jpg","x":201,"y":76},{"src":"http://localhost:8000/images/2_3.jpg","x":362,"y":76},{"src":"http://localhost:8000/images/2_4.jpg","x":524,"y":76}],"moves":[],"final_locations":[{}],"stars_time":[5729.100000008941],"end_time":[5920.70000000298],"rt":191.59999999403954,"trial_type":"order","trial_index":2,"time_elapsed":5789,"internal_node_id":"0.0-2.0","subject":1688316071026,"condition":"conditionB"},{"init_locations":[{"src":"http://localhost:8000/images/2_5.jpg","x":40,"y":76},{"src":"http://localhost:8000/images/2_6.jpg","x":201,"y":76},{"src":"http://localhost:8000/images/2_7.jpg","x":362,"y":76},{"src":"http://localhost:8000/images/2_8.jpg","x":524,"y":76}],"moves":[],"final_locations":[{}],"stars_time":[5921.5],"end_time":[6128.70000000298],"rt":207.20000000298023,"trial_type":"order","trial_index":3,"time_elapsed":5997,"internal_node_id":"0.0-3.0","subject":1688316071026,"condition":"conditionB"},{"init_locations":[{"src":"http://localhost:8000/images/3_1.jpg","x":40,"y":76},{"src":"http://localhost:8000/images/3_2.jpg","x":201,"y":76},{"src":"http://localhost:8000/images/3_3.jpg","x":362,"y":76},{"src":"http://localhost:8000/images/3_4.jpg","x":524,"y":76}],"moves":[],"final_locations":[{}],"stars_time":[6129.70000000298],"end_time":[6320.79999999702],"rt":191.09999999403954,"trial_type":"order","trial_index":4,"time_elapsed":6189,"internal_node_id":"0.0-4.0","subject":1688316071026,"condition":"conditionB"},{"init_locations":[{"src":"http://localhost:8000/images/3_5.jpg","x":40,"y":76},{"src":"http://localhost:8000/images/3_6.jpg","x":201,"y":76},{"src":"http://localhost:8000/images/3_7.jpg","x":362,"y":76},{"src":"http://localhost:8000/images/3_8.jpg","x":524,"y":76}],"moves":[],"final_locations":[{}],"stars_time":[6321.600000008941],"end_time":[6528.70000000298],"rt":207.09999999403954,"trial_type":"order","trial_index":5,"time_elapsed":6398,"internal_node_id":"0.0-5.0","subject":1688316071026,"condition":"conditionB"},{"init_locations":[{"src":"http://localhost:8000/images/4_1.jpg","x":40,"y":76},{"src":"http://localhost:8000/images/4_2.jpg","x":201,"y":76},{"src":"http://localhost:8000/images/4_3.jpg","x":362,"y":76},{"src":"http://localhost:8000/images/4_4.jpg","x":524,"y":76}],"moves":[],"final_locations":[{}],"stars_time":[6529.70000000298],"end_time":[6740.9000000059605],"rt":211.20000000298023,"trial_type":"order","trial_index":6,"time_elapsed":6610,"internal_node_id":"0.0-6.0","subject":1688316071026,"condition":"conditionB"},{"init_locations":[{"src":"http://localhost:8000/images/4_5.jpg","x":40,"y":76},{"src":"http://localhost:8000/images/4_6.jpg","x":201,"y":76},{"src":"http://localhost:8000/images/4_7.jpg","x":362,"y":76},{"src":"http://localhost:8000/images/4_8.jpg","x":524,"y":76}],"moves":[],"final_locations":[{}],"stars_time":[6741.600000008941],"end_time":[6932.600000008941],"rt":191,"trial_type":"order","trial_index":7,"time_elapsed":6802,"internal_node_id":"0.0-7.0","subject":1688316071026,"condition":"conditionB"},{"init_locations":[{"src":"http://localhost:8000/images/5_1.jpg","x":40,"y":76},{"src":"http://localhost:8000/images/5_2.jpg","x":201,"y":76},{"src":"http://localhost:8000/images/5_3.jpg","x":362,"y":76},{"src":"http://localhost:8000/images/5_4.jpg","x":524,"y":76}],"moves":[],"final_locations":[{}],"stars_time":[6933.4000000059605],"end_time":[7140.79999999702],"rt":207.3999999910593,"trial_type":"order","trial_index":8,"time_elapsed":7010,"internal_node_id":"0.0-8.0","subject":1688316071026,"condition":"conditionB"},{"init_locations":[{"src":"http://localhost:8000/images/5_5.jpg","x":40,"y":76},{"src":"http://localhost:8000/images/5_6.jpg","x":201,"y":76},{"src":"http://localhost:8000/images/5_7.jpg","x":362,"y":76},{"src":"http://localhost:8000/images/5_8.jpg","x":524,"y":76}],"moves":[],"final_locations":[{}],"stars_time":[7141.79999999702],"end_time":[7348.70000000298],"rt":206.90000000596046,"trial_type":"order","trial_index":9,"time_elapsed":7218,"internal_node_id":"0.0-9.0","subject":1688316071026,"condition":"conditionB"},{"init_locations":[{"src":"http://localhost:8000/images/6_1.jpg","x":40,"y":76},{"src":"http://localhost:8000/images/6_2.jpg","x":201,"y":76},{"src":"http://localhost:8000/images/6_3.jpg","x":362,"y":76},{"src":"http://localhost:8000/images/6_4.jpg","x":524,"y":76}],"moves":[],"final_locations":[{}],"stars_time":[7349.5],"end_time":[7540.79999999702],"rt":191.29999999701977,"trial_type":"order","trial_index":10,"time_elapsed":7410,"internal_node_id":"0.0-10.0","subject":1688316071026,"condition":"conditionB"},{"init_locations":[{"src":"http://localhost:8000/images/6_5.jpg","x":40,"y":76},{"src":"http://localhost:8000/images/6_6.jpg","x":201,"y":76},{"src":"http://localhost:8000/images/6_7.jpg","x":362,"y":76},{"src":"http://localhost:8000/images/6_8.jpg","x":524,"y":76}],"moves":[],"final_locations":[{}],"stars_time":[7541.600000008941],"end_time":[7764.5],"rt":222.8999999910593,"trial_type":"order","trial_index":11,"time_elapsed":7633,"internal_node_id":"0.0-11.0","subject":1688316071026,"condition":"conditionB"},{"init_locations":[{"src":"http://localhost:8000/images/7_1.jpg","x":40,"y":76},{"src":"http://localhost:8000/images/7_2.jpg","x":201,"y":76},{"src":"http://localhost:8000/images/7_3.jpg","x":362,"y":76},{"src":"http://localhost:8000/images/7_4.jpg","x":524,"y":76}],"moves":[],"final_locations":[{}],"stars_time":[7765],"end_time":[7972.79999999702],"rt":207.79999999701977,"trial_type":"order","trial_index":12,"time_elapsed":7842,"internal_node_id":"0.0-12.0","subject":1688316071026,"condition":"conditionB"},{"init_locations":[{"src":"http://localhost:8000/images/7_5.jpg","x":40,"y":76},{"src":"http://localhost:8000/images/7_6.jpg","x":201,"y":76},{"src":"http://localhost:8000/images/7_7.jpg","x":362,"y":76},{"src":"http://localhost:8000/images/7_8.jpg","x":524,"y":76}],"moves":[],"final_locations":[{}],"stars_time":[7973.600000008941],"end_time":[8180.4000000059605],"rt":206.79999999701977,"trial_type":"order","trial_index":13,"time_elapsed":8049,"internal_node_id":"0.0-13.0","subject":1688316071026,"condition":"conditionB"},{"init_locations":[{"src":"http://localhost:8000/images/8_1.jpg","x":40,"y":76},{"src":"http://localhost:8000/images/8_2.jpg","x":201,"y":76},{"src":"http://localhost:8000/images/8_3.jpg","x":362,"y":76},{"src":"http://localhost:8000/images/8_4.jpg","x":524,"y":76}],"moves":[],"final_locations":[{}],"stars_time":[8181.100000008941],"end_time":[8388.29999999702],"rt":207.19999998807907,"trial_type":"order","trial_index":14,"time_elapsed":8257,"internal_node_id":"0.0-14.0","subject":1688316071026,"condition":"conditionB"},{"init_locations":[{"src":"http://localhost:8000/images/8_5.jpg","x":40,"y":76},{"src":"http://localhost:8000/images/8_6.jpg","x":201,"y":76},{"src":"http://localhost:8000/images/8_7.jpg","x":362,"y":76},{"src":"http://localhost:8000/images/8_8.jpg","x":524,"y":76}],"moves":[],"final_locations":[{}],"stars_time":[8388.90000000596],"end_time":[8596.70000000298],"rt":207.79999999701977,"trial_type":"order","trial_index":15,"time_elapsed":8466,"internal_node_id":"0.0-15.0","subject":1688316071026,"condition":"conditionB"},{"init_locations":[{"src":"http://localhost:8000/images/9_1.jpg","x":40,"y":76},{"src":"http://localhost:8000/images/9_2.jpg","x":201,"y":76},{"src":"http://localhost:8000/images/9_3.jpg","x":362,"y":76},{"src":"http://localhost:8000/images/9_4.jpg","x":524,"y":76}],"moves":[],"final_locations":[{}],"stars_time":[8597.20000000298],"end_time":[8805],"rt":207.79999999701977,"trial_type":"order","trial_index":16,"time_elapsed":8674,"internal_node_id":"0.0-16.0","subject":1688316071026,"condition":"conditionB"},{"init_locations":[{"src":"http://localhost:8000/images/9_5.jpg","x":40,"y":76},{"src":"http://localhost:8000/images/9_6.jpg","x":201,"y":76},{"src":"http://localhost:8000/images/9_7.jpg","x":362,"y":76},{"src":"http://localhost:8000/images/9_8.jpg","x":524,"y":76}],"moves":[],"final_locations":[{}],"stars_time":[8805.79999999702],"end_time":[9012.70000000298],"rt":206.90000000596046,"trial_type":"order","trial_index":17,"time_elapsed":8881,"internal_node_id":"0.0-17.0","subject":1688316071026,"condition":"conditionB"},{"rt":1314.8999999910593,"stimulus":"<p>How difficult was it to order the pictures?</p>","button_pressed":"2","trial_type":"html-button-response","trial_index":18,"time_elapsed":10198,"internal_node_id":"0.0-18.0","subject":1688316071026,"condition":"conditionB"}]