[{"init_locations":[{"src":"http://34.125.186.26/images/1_1.jpg","x":13,"y":76},{"src":"http://34.125.186.26/images/1_2.jpg","x":174,"y":76},{"src":"http://34.125.186.26/images/1_3.jpg","x":336,"y":76},{"src":"http://34.125.186.26/images/1_4.jpg","x":497,"y":76}],"moves":[{"src":"http://34.125.186.26/images/1_2.jpg","x":174,"y":314,"move_time":1247.6999999955297}],"final_locations":[{"final":{"src":"http://34.125.186.26/images/1_2.jpg","x":174,"y":314,"move_time":1247.6999999955297}}],"stars_time":[890.6000000014901],"end_time":[3002.10000000149],"rt":2111.5,"trial_type":"order","trial_index":0,"time_elapsed":2114,"internal_node_id":"0.0-0.0","subject":1688453277058,"condition":"conditionC"},{"init_locations":[{"src":"http://34.125.186.26/images/1_5.jpg","x":12,"y":76},{"src":"http://34.125.186.26/images/1_6.jpg","x":174,"y":76},{"src":"http://34.125.186.26/images/1_7.jpg","x":335,"y":76},{"src":"http://34.125.186.26/images/1_8.jpg","x":496,"y":76}],"moves":[],"final_locations":[{}],"stars_time":[3003.6999999955297],"end_time":[3192.6999999955297],"rt":189,"trial_type":"order","trial_index":1,"time_elapsed":2304,"internal_node_id":"0.0-1.0","subject":1688453277058,"condition":"conditionC"},{"init_locations":[{"src":"http://34.125.186.26/images/2_1.jpg","x":12,"y":76},{"src":"http://34.125.186.26/images/2_2.jpg","x":174,"y":76},{"src":"http://34.125.186.26/images/2_3.jpg","x":335,"y":76},{"src":"http://34.125.186.26/images/2_4.jpg","x":496,"y":76}],"moves":[],"final_locations":[{}],"stars_time":[3193.6999999955297],"end_time":[3384.7999999970198],"rt":191.10000000149012,"trial_type":"order","trial_index":2,"time_elapsed":2496,"internal_node_id":"0.0-2.0","subject":1688453277058,"condition":"conditionC"},{"init_locations":[{"src":"http://34.125.186.26/images/2_5.jpg","x":12,"y":76},{"src":"http://34.125.186.26/images/2_6.jpg","x":174,"y":76},{"src":"http://34.125.186.26/images/2_7.jpg","x":335,"y":76},{"src":"http://34.125.186.26/images/2_8.jpg","x":496,"y":76}],"moves":[],"final_locations":[{}],"stars_time":[3385.5],"end_time":[3581.10000000149],"rt":195.60000000149012,"trial_type":"order","trial_index":3,"time_elapsed":2693,"internal_node_id":"0.0-3.0","subject":1688453277058,"condition":"conditionC"},{"init_locations":[{"src":"http://34.125.186.26/images/3_1.jpg","x":12,"y":76},{"src":"http://34.125.186.26/images/3_2.jpg","x":174,"y":76},{"src":"http://34.125.186.26/images/3_3.jpg","x":335,"y":76},{"src":"http://34.125.186.26/images/3_4.jpg","x":496,"y":76}],"moves":[],"final_locations":[{}],"stars_time":[3582],"end_time":[3752.89999999851],"rt":170.89999999850988,"trial_type":"order","trial_index":4,"time_elapsed":2865,"internal_node_id":"0.0-4.0","subject":1688453277058,"condition":"conditionC"},{"init_locations":[{"src":"http://34.125.186.26/images/3_5.jpg","x":12,"y":76},{"src":"http://34.125.186.26/images/3_6.jpg","x":174,"y":76},{"src":"http://34.125.186.26/images/3_7.jpg","x":335,"y":76},{"src":"http://34.125.186.26/images/3_8.jpg","x":496,"y":76}],"moves":[],"final_locations":[{}],"stars_time":[3753.6999999955297],"end_time":[3944.6999999955297],"rt":191,"trial_type":"order","trial_index":5,"time_elapsed":3056,"internal_node_id":"0.0-5.0","subject":1688453277058,"condition":"conditionC"},{"init_locations":[{"src":"http://34.125.186.26/images/4_1.jpg","x":12,"y":76},{"src":"http://34.125.186.26/images/4_2.jpg","x":174,"y":76},{"src":"http://34.125.186.26/images/4_3.jpg","x":335,"y":76},{"src":"http://34.125.186.26/images/4_4.jpg","x":496,"y":76}],"moves":[],"final_locations":[{}],"stars_time":[3946],"end_time":[4136.79999999702],"rt":190.79999999701977,"trial_type":"order","trial_index":6,"time_elapsed":3248,"internal_node_id":"0.0-6.0","subject":1688453277058,"condition":"conditionC"},{"init_locations":[{"src":"http://34.125.186.26/images/4_5.jpg","x":12,"y":76},{"src":"http://34.125.186.26/images/4_6.jpg","x":174,"y":76},{"src":"http://34.125.186.26/images/4_7.jpg","x":335,"y":76},{"src":"http://34.125.186.26/images/4_8.jpg","x":496,"y":76}],"moves":[],"final_locations":[{}],"stars_time":[4137.5],"end_time":[4333.10000000149],"rt":195.60000000149012,"trial_type":"order","trial_index":7,"time_elapsed":3445,"internal_node_id":"0.0-7.0","subject":1688453277058,"condition":"conditionC"},{"init_locations":[{"src":"http://34.125.186.26/images/5_1.jpg","x":12,"y":76},{"src":"http://34.125.186.26/images/5_2.jpg","x":174,"y":76},{"src":"http://34.125.186.26/images/5_3.jpg","x":335,"y":76},{"src":"http://34.125.186.26/images/5_4.jpg","x":496,"y":76}],"moves":[],"final_locations":[{}],"stars_time":[4334.10000000149],"end_time":[4540.79999999702],"rt":206.69999999552965,"trial_type":"order","trial_index":8,"time_elapsed":3652,"internal_node_id":"0.0-8.0","subject":1688453277058,"condition":"conditionC"},{"init_locations":[{"src":"http://34.125.186.26/images/5_5.jpg","x":12,"y":76},{"src":"http://34.125.186.26/images/5_6.jpg","x":174,"y":76},{"src":"http://34.125.186.26/images/5_7.jpg","x":335,"y":76},{"src":"http://34.125.186.26/images/5_8.jpg","x":496,"y":76}],"moves":[],"final_locations":[{}],"stars_time":[4541.60000000149],"end_time":[4749],"rt":207.39999999850988,"trial_type":"order","trial_index":9,"time_elapsed":3861,"internal_node_id":"0.0-9.0","subject":1688453277058,"condition":"conditionC"},{"init_locations":[{"src":"http://34.125.186.26/images/6_1.jpg","x":12,"y":76},{"src":"http://34.125.186.26/images/6_2.jpg","x":174,"y":76},{"src":"http://34.125.186.26/images/6_3.jpg","x":335,"y":76},{"src":"http://34.125.186.26/images/6_4.jpg","x":496,"y":76}],"moves":[],"final_locations":[{}],"stars_time":[4749.79999999702],"end_time":[4956.69999999553],"rt":206.89999999850988,"trial_type":"order","trial_index":10,"time_elapsed":4068,"internal_node_id":"0.0-10.0","subject":1688453277058,"condition":"conditionC"},{"init_locations":[{"src":"http://34.125.186.26/images/6_5.jpg","x":12,"y":76},{"src":"http://34.125.186.26/images/6_6.jpg","x":174,"y":76},{"src":"http://34.125.186.26/images/6_7.jpg","x":335,"y":76},{"src":"http://34.125.186.26/images/6_8.jpg","x":496,"y":76}],"moves":[],"final_locations":[{}],"stars_time":[4957.39999999851],"end_time":[5149],"rt":191.60000000149012,"trial_type":"order","trial_index":11,"time_elapsed":4261,"internal_node_id":"0.0-11.0","subject":1688453277058,"condition":"conditionC"},{"init_locations":[{"src":"http://34.125.186.26/images/7_1.jpg","x":12,"y":76},{"src":"http://34.125.186.26/images/7_2.jpg","x":174,"y":76},{"src":"http://34.125.186.26/images/7_3.jpg","x":335,"y":76},{"src":"http://34.125.186.26/images/7_4.jpg","x":496,"y":76}],"moves":[],"final_locations":[{}],"stars_time":[5149.89999999851],"end_time":[5340.60000000149],"rt":190.70000000298023,"trial_type":"order","trial_index":12,"time_elapsed":4452,"internal_node_id":"0.0-12.0","subject":1688453277058,"condition":"conditionC"},{"init_locations":[{"src":"http://34.125.186.26/images/7_5.jpg","x":12,"y":76},{"src":"http://34.125.186.26/images/7_6.jpg","x":174,"y":76},{"src":"http://34.125.186.26/images/7_7.jpg","x":335,"y":76},{"src":"http://34.125.186.26/images/7_8.jpg","x":496,"y":76}],"moves":[],"final_locations":[{}],"stars_time":[5341.29999999702],"end_time":[5549.39999999851],"rt":208.10000000149012,"trial_type":"order","trial_index":13,"time_elapsed":4661,"internal_node_id":"0.0-13.0","subject":1688453277058,"condition":"conditionC"},{"init_locations":[{"src":"http://34.125.186.26/images/8_1.jpg","x":12,"y":76},{"src":"http://34.125.186.26/images/8_2.jpg","x":174,"y":76},{"src":"http://34.125.186.26/images/8_3.jpg","x":335,"y":76},{"src":"http://34.125.186.26/images/8_4.jpg","x":496,"y":76}],"moves":[],"final_locations":[{}],"stars_time":[5550],"end_time":[5757.10000000149],"rt":207.10000000149012,"trial_type":"order","trial_index":14,"time_elapsed":4869,"internal_node_id":"0.0-14.0","subject":1688453277058,"condition":"conditionC"},{"init_locations":[{"src":"http://34.125.186.26/images/8_5.jpg","x":12,"y":76},{"src":"http://34.125.186.26/images/8_6.jpg","x":174,"y":76},{"src":"http://34.125.186.26/images/8_7.jpg","x":335,"y":76},{"src":"http://34.125.186.26/images/8_8.jpg","x":496,"y":76}],"moves":[],"final_locations":[{}],"stars_time":[5757.89999999851],"end_time":[5948.39999999851],"rt":190.5,"trial_type":"order","trial_index":15,"time_elapsed":5060,"internal_node_id":"0.0-15.0","subject":1688453277058,"condition":"conditionC"},{"init_locations":[{"src":"http://34.125.186.26/images/9_1.jpg","x":12,"y":76},{"src":"http://34.125.186.26/images/9_2.jpg","x":174,"y":76},{"src":"http://34.125.186.26/images/9_3.jpg","x":335,"y":76},{"src":"http://34.125.186.26/images/9_4.jpg","x":496,"y":76}],"moves":[],"final_locations":[{}],"stars_time":[5949.29999999702],"end_time":[6156.60000000149],"rt":207.30000000447035,"trial_type":"order","trial_index":16,"time_elapsed":5269,"internal_node_id":"0.0-16.0","subject":1688453277058,"condition":"conditionC"},{"init_locations":[{"src":"http://34.125.186.26/images/9_5.jpg","x":12,"y":76},{"src":"http://34.125.186.26/images/9_6.jpg","x":174,"y":76},{"src":"http://34.125.186.26/images/9_7.jpg","x":335,"y":76},{"src":"http://34.125.186.26/images/9_8.jpg","x":496,"y":76}],"moves":[],"final_locations":[{}],"stars_time":[6157.79999999702],"end_time":[6364.69999999553],"rt":206.89999999850988,"trial_type":"order","trial_index":17,"time_elapsed":5477,"internal_node_id":"0.0-17.0","subject":1688453277058,"condition":"conditionC"},{"rt":1377.8000000044703,"stimulus":"<p>How difficult was it to order the pictures?</p>","button_pressed":"1","trial_type":"html-button-response","trial_index":18,"time_elapsed":6857,"internal_node_id":"0.0-18.0","subject":1688453277058,"condition":"conditionC"}]