"rt","responses","ttype","trial_type","trial_index","time_elapsed","internal_node_id","age","PID","warning","missed_checkup","success","start_time","view_history","repeat_instructions","key_press","response","stimulus_index","path","index","left_chosen","chosen_stimulus","unchosen_stimulus","chosen_category","unchosen_category","chosen_rating","unchosen_rating","chosen_path","unchosen_path","no_response","pair_id","practice","scramble_screen_time","scramble_instructed_side","stim_type","iti","block","run","left_stimulus","right_stimulus","left_category","right_category","left_path","right_path","left_rating","right_rating","onset","duration","response_ends_trial","trial_duration","scramble_acc","stimulus_id","isi","item_id","outcome","response_rt","deliberation_reward_tally","choice_type","gain_left","left_item_id","right_item_id","higher_outcome_chosen"
"188224","{""Q0"":""11"",""Q1"":""12""}","get_id","survey-text","0","188227","0.0-0.0-0.0-0.0","12","11","0","0","","","","","","","","","","","","","","","","","","","","","","","","","","","","","","","","","","","","","","","","","","","","","","","","","","",""
"","","full_screen","fullscreen","1","190306","0.0-0.0-1.0","12","11","0","0","true","d04212023hr1533","","","","","","","","","","","","","","","","","","","","","","","","","","","","","","","","","","","","","","","","","","","","","","","","",""
"1281","","ratings_instructions","instructions","2","191590","0.0-1.0-0.0-0.0","12","11","0","0","","","[{""page_index"":0,""viewing_time"":1115},{""page_index"":1,""viewing_time"":166}]","","","","","","","","","","","","","","","","","","","","","","","","","","","","","","","","","","","","","","","","","","","","","","","",""
"2793","{""Q0"":""True"",""Q1"":""Mouse""}","rating_comprehension_check","survey-multi-choice","3","194386","0.0-1.0-0.0-1.0","12","11","0","0","","","","0","","","","","","","","","","","","","","","","","","","","","","","","","","","","","","","","","","","","","","","","","","","","","","",""
"953","","","html-keyboard-response","4","195342","0.0-1.0-1.0","12","11","0","0","","","","","83","","","","","","","","","","","","","","","","","","","","","","","","","","","","","","","","","","","","","","","","","","","","","",""
"1605","","rating","html-slider-response","5","196950","0.0-1.0-2.0","12","11","0","0","","","","","","50","26","Stimuli/Experimental_stims/faces/art-hauntington-jzY0KRJopEI-unsplash.jpg","0","","","","","","","","","","","","","","","","","","","","","","","","","","","","","","","","","","","","","","","","","",""
"146","","rating","html-slider-response","6","197099","0.0-1.0-3.0","12","11","0","0","","","","","","50","14","Stimuli/Experimental_stims/outdoor_scenes/bruno-van-der-kraan-qez8mNJ3ilU-unsplash.jpg","1","","","","","","","","","","","","","","","","","","","","","","","","","","","","","","","","","","","","","","","","","",""
"158","","rating","html-slider-response","7","197259","0.0-1.0-4.0","12","11","0","0","","","","","","50","47","Stimuli/Experimental_stims/body_parts/tucker-good-36skLT5jZcc-unsplash.jpg","2","","","","","","","","","","","","","","","","","","","","","","","","","","","","","","","","","","","","","","","","","",""
"232","","rating","html-slider-response","8","197494","0.0-1.0-5.0","12","11","0","0","","","","","","50","51","Stimuli/Experimental_stims/objects/art-lasovsky-8XddFc6NkBY-unsplash.jpg","3","","","","","","","","","","","","","","","","","","","","","","","","","","","","","","","","","","","","","","","","","",""
"172","","rating","html-slider-response","9","197668","0.0-1.0-6.0","12","11","0","0","","","","","","50","33","Stimuli/Experimental_stims/faces/leilani-angel-K84vnnzxmTQ-unsplash.jpg","4","","","","","","","","","","","","","","","","","","","","","","","","","","","","","","","","","","","","","","","","","",""
"158","","rating","html-slider-response","10","197829","0.0-1.0-7.0","12","11","0","0","","","","","","50","24","Stimuli/Experimental_stims/faces/abstral-official-cyOKLSgkgCE-unsplash.jpg","5","","","","","","","","","","","","","","","","","","","","","","","","","","","","","","","","","","","","","","","","","",""
"169","","rating","html-slider-response","11","198000","0.0-1.0-8.0","12","11","0","0","","","","","","50","13","Stimuli/Experimental_stims/outdoor_scenes/ashim-d-silva-S2Q5mdOrrVc-unsplash.jpg","6","","","","","","","","","","","","","","","","","","","","","","","","","","","","","","","","","","","","","","","","","",""
"155","","rating","html-slider-response","12","198157","0.0-1.0-9.0","12","11","0","0","","","","","","50","20","Stimuli/Experimental_stims/outdoor_scenes/samsommer-vddccTqwal8-unsplash.jpg","7","","","","","","","","","","","","","","","","","","","","","","","","","","","","","","","","","","","","","","","","","",""
"158","","rating","html-slider-response","13","198317","0.0-1.0-10.0","12","11","0","0","","","","","","50","50","Stimuli/Experimental_stims/objects/andrew-petrov-TVJqDat4MAw-unsplash.jpg","8","","","","","","","","","","","","","","","","","","","","","","","","","","","","","","","","","","","","","","","","","",""
"163","","rating","html-slider-response","14","198482","0.0-1.0-11.0","12","11","0","0","","","","","","50","32","Stimuli/Experimental_stims/faces/justin-chen-J7Cf1Gch49E-unsplash.jpg","9","","","","","","","","","","","","","","","","","","","","","","","","","","","","","","","","","","","","","","","","","",""
"164","","rating","html-slider-response","15","198649","0.0-1.0-12.0","12","11","0","0","","","","","","50","21","Stimuli/Experimental_stims/outdoor_scenes/sergey-pesterev-y-b_FOmJXdg-unsplash.jpg","10","","","","","","","","","","","","","","","","","","","","","","","","","","","","","","","","","","","","","","","","","",""
"173","","rating","html-slider-response","16","198824","0.0-1.0-13.0","12","11","0","0","","","","","","50","18","Stimuli/Experimental_stims/outdoor_scenes/meng-ji-8BH_M-53CyA-unsplash.jpg","11","","","","","","","","","","","","","","","","","","","","","","","","","","","","","","","","","","","","","","","","","",""
"211","","rating","html-slider-response","17","199038","0.0-1.0-14.0","12","11","0","0","","","","","","50","46","Stimuli/Experimental_stims/body_parts/sincerely-media-VN6DbKajo5s-unsplash.jpg","12","","","","","","","","","","","","","","","","","","","","","","","","","","","","","","","","","","","","","","","","","",""
"122","","rating","html-slider-response","18","199163","0.0-1.0-15.0","12","11","0","0","","","","","","50","30","Stimuli/Experimental_stims/faces/good-faces-xmSWVeGEnJw-unsplash.jpg","13","","","","","","","","","","","","","","","","","","","","","","","","","","","","","","","","","","","","","","","","","",""
"174","","rating","html-slider-response","19","199338","0.0-1.0-16.0","12","11","0","0","","","","","","50","29","Stimuli/Experimental_stims/faces/freddy-kearney-o-ioeoATbIM-unsplash.jpg","14","","","","","","","","","","","","","","","","","","","","","","","","","","","","","","","","","","","","","","","","","",""
"170","","rating","html-slider-response","20","199511","0.0-1.0-17.0","12","11","0","0","","","","","","50","39","Stimuli/Experimental_stims/body_parts/jonathan-borba-hTwH8QFkPMs-unsplash.jpg","15","","","","","","","","","","","","","","","","","","","","","","","","","","","","","","","","","","","","","","","","","",""
"165","","rating","html-slider-response","21","199679","0.0-1.0-18.0","12","11","0","0","","","","","","50","43","Stimuli/Experimental_stims/body_parts/megan-menegay-UojxG_BJxnI-unsplash.jpg","16","","","","","","","","","","","","","","","","","","","","","","","","","","","","","","","","","","","","","","","","","",""
"172","","rating","html-slider-response","22","199853","0.0-1.0-19.0","12","11","0","0","","","","","","50","27","Stimuli/Experimental_stims/faces/daniel-rigdon-dXmXKPP2L4E-unsplash.jpg","17","","","","","","","","","","","","","","","","","","","","","","","","","","","","","","","","","","","","","","","","","",""
"170","","rating","html-slider-response","23","200025","0.0-1.0-20.0","12","11","0","0","","","","","","50","25","Stimuli/Experimental_stims/faces/aiony-haust-jmATI5Q_YgY-unsplash.jpg","18","","","","","","","","","","","","","","","","","","","","","","","","","","","","","","","","","","","","","","","","","",""
"171","","rating","html-slider-response","24","200199","0.0-1.0-21.0","12","11","0","0","","","","","","50","34","Stimuli/Experimental_stims/faces/olena-sergienko-0TSd6uCKTKc-unsplash.jpg","19","","","","","","","","","","","","","","","","","","","","","","","","","","","","","","","","","","","","","","","","","",""
"170","","rating","html-slider-response","25","200372","0.0-1.0-22.0","12","11","0","0","","","","","","50","37","Stimuli/Experimental_stims/body_parts/engin-akyurt-Q2rfH3GW39c-unsplash.jpg","20","","","","","","","","","","","","","","","","","","","","","","","","","","","","","","","","","","","","","","","","","",""
"195","","rating","html-slider-response","26","200569","0.0-1.0-23.0","12","11","0","0","","","","","","50","40","Stimuli/Experimental_stims/body_parts/klara-kulikova-TcUfF24fUMY-unsplash.jpg","21","","","","","","","","","","","","","","","","","","","","","","","","","","","","","","","","","","","","","","","","","",""
"157","","rating","html-slider-response","27","200729","0.0-1.0-24.0","12","11","0","0","","","","","","50","59","Stimuli/Experimental_stims/objects/ronaldo-arthur-vidal-Cdz_lvnl37k-unsplash.jpg","22","","","","","","","","","","","","","","","","","","","","","","","","","","","","","","","","","","","","","","","","","",""
"164","","rating","html-slider-response","28","200894","0.0-1.0-25.0","12","11","0","0","","","","","","50","56","Stimuli/Experimental_stims/objects/jonathan-greenaway-Y4hGgeiFn3s-unsplash.jpg","23","","","","","","","","","","","","","","","","","","","","","","","","","","","","","","","","","","","","","","","","","",""
"178","","rating","html-slider-response","29","201075","0.0-1.0-26.0","12","11","0","0","","","","","","50","42","Stimuli/Experimental_stims/body_parts/lucrezia-carnelos-kn6QrWtnAtY-unsplash.jpg","24","","","","","","","","","","","","","","","","","","","","","","","","","","","","","","","","","","","","","","","","","",""
"175","","rating","html-slider-response","30","201252","0.0-1.0-27.0","12","11","0","0","","","","","","50","15","Stimuli/Experimental_stims/outdoor_scenes/henry-be-NLF6hTe4PAg-unsplash.jpg","25","","","","","","","","","","","","","","","","","","","","","","","","","","","","","","","","","","","","","","","","","",""
"168","","rating","html-slider-response","31","201422","0.0-1.0-28.0","12","11","0","0","","","","","","50","22","Stimuli/Experimental_stims/outdoor_scenes/stephen-leonardi-gyIRjKPXupE-unsplash.jpg","26","","","","","","","","","","","","","","","","","","","","","","","","","","","","","","","","","","","","","","","","","",""
"181","","rating","html-slider-response","32","201606","0.0-1.0-29.0","12","11","0","0","","","","","","50","17","Stimuli/Experimental_stims/outdoor_scenes/jeff-king-bJHWJeiHfHc-unsplash.jpg","27","","","","","","","","","","","","","","","","","","","","","","","","","","","","","","","","","","","","","","","","","",""
"178","","rating","html-slider-response","33","201787","0.0-1.0-30.0","12","11","0","0","","","","","","50","12","Stimuli/Experimental_stims/outdoor_scenes/aleksandra-boguslawska-MS7KD9Ti7FQ-unsplash.jpg","28","","","","","","","","","","","","","","","","","","","","","","","","","","","","","","","","","","","","","","","","","",""
"180","","rating","html-slider-response","34","201969","0.0-1.0-31.0","12","11","0","0","","","","","","50","19","Stimuli/Experimental_stims/outdoor_scenes/petr-vysohlid-9fqwGqGLUxc-unsplash.jpg","29","","","","","","","","","","","","","","","","","","","","","","","","","","","","","","","","","","","","","","","","","",""
"158","","rating","html-slider-response","35","202130","0.0-1.0-32.0","12","11","0","0","","","","","","50","58","Stimuli/Experimental_stims/objects/mockup-graphics-PNsj6RiHAF4-unsplash.jpg","30","","","","","","","","","","","","","","","","","","","","","","","","","","","","","","","","","","","","","","","","","",""
"195","","rating","html-slider-response","36","202327","0.0-1.0-33.0","12","11","0","0","","","","","","50","23","Stimuli/Experimental_stims/outdoor_scenes/yuriy-bogdanov-W51VK3Obcj0-unsplash.jpg","31","","","","","","","","","","","","","","","","","","","","","","","","","","","","","","","","","","","","","","","","","",""
"186","","rating","html-slider-response","37","202516","0.0-1.0-34.0","12","11","0","0","","","","","","50","52","Stimuli/Experimental_stims/objects/fabian-blank-pElSkGRA2NU-unsplash.jpg","32","","","","","","","","","","","","","","","","","","","","","","","","","","","","","","","","","","","","","","","","","",""
"188","","rating","html-slider-response","38","202705","0.0-1.0-35.0","12","11","0","0","","","","","","50","54","Stimuli/Experimental_stims/objects/jess-bailey-nOeVi8DsN8U-unsplash.jpg","33","","","","","","","","","","","","","","","","","","","","","","","","","","","","","","","","","","","","","","","","","",""
"197","","rating","html-slider-response","39","202905","0.0-1.0-36.0","12","11","0","0","","","","","","50","36","Stimuli/Experimental_stims/body_parts/callum-skelton-3KLMq7y46nA-unsplash.jpg","34","","","","","","","","","","","","","","","","","","","","","","","","","","","","","","","","","","","","","","","","","",""
"201","","rating","html-slider-response","40","203109","0.0-1.0-37.0","12","11","0","0","","","","","","50","57","Stimuli/Experimental_stims/objects/kuiye-chen-NuOGFo4PudE-unsplash.jpg","35","","","","","","","","","","","","","","","","","","","","","","","","","","","","","","","","","","","","","","","","","",""
"196","","rating","html-slider-response","41","203307","0.0-1.0-38.0","12","11","0","0","","","","","","50","53","Stimuli/Experimental_stims/objects/insung-yoon-w2JtIQQXoRU-unsplash.jpg","36","","","","","","","","","","","","","","","","","","","","","","","","","","","","","","","","","","","","","","","","","",""
"197","","rating","html-slider-response","42","203506","0.0-1.0-39.0","12","11","0","0","","","","","","50","41","Stimuli/Experimental_stims/body_parts/lucaxx-freire-CacZwMexYdk-unsplash.jpg","37","","","","","","","","","","","","","","","","","","","","","","","","","","","","","","","","","","","","","","","","","",""
"193","","rating","html-slider-response","43","203702","0.0-1.0-40.0","12","11","0","0","","","","","","50","38","Stimuli/Experimental_stims/body_parts/engin-akyurt-x_3gyC42btc-unsplash.jpg","38","","","","","","","","","","","","","","","","","","","","","","","","","","","","","","","","","","","","","","","","","",""
"202","","rating","html-slider-response","44","203907","0.0-1.0-41.0","12","11","0","0","","","","","","50","45","Stimuli/Experimental_stims/body_parts/sincerely-media-7TBFwUQA6Xk-unsplash.jpg","39","","","","","","","","","","","","","","","","","","","","","","","","","","","","","","","","","","","","","","","","","",""
"189","","rating","html-slider-response","45","204099","0.0-1.0-42.0","12","11","0","0","","","","","","50","49","Stimuli/Experimental_stims/objects/alexander-andrews-VLGWE_SumrA-unsplash.jpg","40","","","","","","","","","","","","","","","","","","","","","","","","","","","","","","","","","","","","","","","","","",""
"203","","rating","html-slider-response","46","204304","0.0-1.0-43.0","12","11","0","0","","","","","","50","44","Stimuli/Experimental_stims/body_parts/pure-julia-9lVaya31sMk-unsplash.jpg","41","","","","","","","","","","","","","","","","","","","","","","","","","","","","","","","","","","","","","","","","","",""
"186","","rating","html-slider-response","47","204493","0.0-1.0-44.0","12","11","0","0","","","","","","50","31","Stimuli/Experimental_stims/faces/jessica-radanavong-mrYkTuAesKE-unsplash.jpg","42","","","","","","","","","","","","","","","","","","","","","","","","","","","","","","","","","","","","","","","","","",""
"180","","rating","html-slider-response","48","204676","0.0-1.0-45.0","12","11","0","0","","","","","","50","55","Stimuli/Experimental_stims/objects/jiangxulei1990-eIzzzwtkBjU-unsplash.jpg","43","","","","","","","","","","","","","","","","","","","","","","","","","","","","","","","","","","","","","","","","","",""
"176","","rating","html-slider-response","49","204855","0.0-1.0-46.0","12","11","0","0","","","","","","50","48","Stimuli/Experimental_stims/objects/alexander-andrews-JYGnB9gTCls-unsplash.jpg","44","","","","","","","","","","","","","","","","","","","","","","","","","","","","","","","","","","","","","","","","","",""
"197","","rating","html-slider-response","50","205054","0.0-1.0-47.0","12","11","0","0","","","","","","50","16","Stimuli/Experimental_stims/outdoor_scenes/jarrett-kow-1ZOyYPOBn7I-unsplash.jpg","45","","","","","","","","","","","","","","","","","","","","","","","","","","","","","","","","","","","","","","","","","",""
"177","","rating","html-slider-response","51","205234","0.0-1.0-48.0","12","11","0","0","","","","","","50","28","Stimuli/Experimental_stims/faces/erik-lucatero-d2MSDujJl2g-unsplash.jpg","46","","","","","","","","","","","","","","","","","","","","","","","","","","","","","","","","","","","","","","","","","",""
"213","","rating","html-slider-response","52","205449","0.0-1.0-49.0","12","11","0","0","","","","","","50","35","Stimuli/Experimental_stims/faces/rikonavt-HQjfrvdTfak-unsplash.jpg","47","","","","","","","","","","","","","","","","","","","","","","","","","","","","","","","","","","","","","","","","","",""
"2739","","deliberation_instructions","instructions","53","208217","0.0-2.0-0.0-0.0","12","11","0","0","","","[{""page_index"":0,""viewing_time"":1354},{""page_index"":1,""viewing_time"":176},{""page_index"":2,""viewing_time"":188},{""page_index"":3,""viewing_time"":506},{""page_index"":4,""viewing_time"":514}]","","","","","","","","","","","","","","","","","","","","","","","","","","","","","","","","","","","","","","","","","","","","","","","",""
"5799","{""Q0"":""True"",""Q1"":""True"",""Q2"":""Consider carefully and take your time (up to 10 seconds)"",""Q3"":""True"",""Q4"":""D""}","deliberation_comprehension_check","survey-multi-choice","54","214020","0.0-2.0-0.0-1.0","12","11","0","0","","","","0","","","","","","","","","","","","","","","","","","","","","","","","","","","","","","","","","","","","","","","","","","","","","","",""
"1191","","","html-keyboard-response","55","215215","0.0-2.0-1.0","12","11","0","0","","","","","83","","","","","","","","","","","","","","","","","","","","","","","","","","","","","","","","","","","","","","","","","","","","","",""
"811","","deliberation","html-keyboard-response","56","216030","0.0-2.0-2.0-0.0","12","11","0","0","","","","","50","","","","0","1","NA","NA","NaN","NaN","NA","NA","Stimuli/Practice_stims/Deliberation/anthony-delanoix-Q0-fOL2nqZc-unsplash.jpg","Stimuli/Practice_stims/Deliberation/becca-tapert-sY5RjMB1KkE-unsplash.jpg","0","prac1","1","NaN","NaN","original","1500","0","0","NA","NA","NaN","NaN","Stimuli/Practice_stims/Deliberation/anthony-delanoix-Q0-fOL2nqZc-unsplash.jpg","Stimuli/Practice_stims/Deliberation/becca-tapert-sY5RjMB1KkE-unsplash.jpg","NA","NA","0","0.811","","","","","","","","","","","","","",""
"null","","deliberation_confirmation","html-keyboard-response","57","216227","0.0-2.0-2.0-2.0-0.0","12","11","0","0","","","","","null","","","","0","","","","","","","","","","","","","","","","","0","","","","","","","","","","0.811","0.189","","","","","","","","","","","","","",""
"null","","iti","html-keyboard-response","58","216336","0.0-2.0-2.0-4.0","12","11","0","0","","","","","null","","","","0","","","","","","","","","","","","","","","","","0","","","","","","","","","","1","1.5","","","","","","","","","","","","","",""
"0","","deliberation","html-keyboard-response","59","216339","0.0-2.0-4.0-0.0","12","11","0","0","","","","","50","","","","1","","","","","","","","","","0","prac2","1","2559","left","scramble","2500","0","0","NA","NA","NaN","NaN","Stimuli/Practice_stims/Deliberation/scramble/scrambled_clay-banks-1KPfcPdbWFM-unsplash.jpg","Stimuli/Practice_stims/Deliberation/scramble/scrambled_melissa-keizer-sV4Pd8wq5_o-unsplash.jpg","NA","NA","2.5","2.559","false","2559","","","","","","","","","","","",""
"524","","scramble_instruction","html-keyboard-response","60","216865","0.0-2.0-4.0-1.0-0.0","12","11","0","0","","","","","50","","","","1","1","NA","NA","NaN","NaN","","","","","0","","","","","","","0","","","","","","","","","","5.059","0.524","","","1","","","","","","","","","","",""
"null","","deliberation_confirmation","html-keyboard-response","61","216869","0.0-2.0-4.0-2.0-0.0","12","11","0","0","","","","","null","","","","1","","","","","","","","","","","","","","","","","0","","","","","","","","","","5.583","-2.083","","","","","","","","","","","","","",""
"null","","iti","html-keyboard-response","62","216978","0.0-2.0-4.0-4.0","12","11","0","0","","","","","null","","","","1","","","","","","","","","","","","","","","","","0","","","","","","","","","","3.5","2.5","","","","","","","","","","","","","",""
"214","","deliberation","html-keyboard-response","63","217195","0.0-2.0-6.0-0.0","12","11","0","0","","","","","50","","","","2","","","","","","","","","","0","prac3","1","1450","right","scramble","3000","0","0","NA","NA","NaN","NaN","Stimuli/Practice_stims/Deliberation/scramble/scrambled_anthony-delanoix-Q0-fOL2nqZc-unsplash.jpg","Stimuli/Practice_stims/Deliberation/scramble/scrambled_becca-tapert-sY5RjMB1KkE-unsplash.jpg","NA","NA","6","1.45","false","1450","","","","","","","","","","","",""
"228","","scramble_instruction","html-keyboard-response","64","217425","0.0-2.0-6.0-1.0-0.0","12","11","0","0","","","","","50","","","","2","1","NA","NA","NaN","NaN","","","","","0","","","","","","","0","","","","","","","","","","7.45","0.228","","","0","","","","","","","","","","",""
"null","","deliberation_confirmation","html-keyboard-response","65","217428","0.0-2.0-6.0-2.0-0.0","12","11","0","0","","","","","null","","","","2","","","","","","","","","","","","","","","","","0","","","","","","","","","","7.678","-0.678","","","","","","","","","","","","","",""
"null","","iti","html-keyboard-response","66","217538","0.0-2.0-6.0-4.0","12","11","0","0","","","","","null","","","","2","","","","","","","","","","","","","","","","","0","","","","","","","","","","7","3","","","","","","","","","","","","","",""
"138","","deliberation","html-keyboard-response","67","217678","0.0-2.0-8.0-0.0","12","11","0","0","","","","","50","","","","3","1","NA","NA","NaN","NaN","NA","NA","Stimuli/Practice_stims/Deliberation/clay-banks-1KPfcPdbWFM-unsplash.jpg","Stimuli/Practice_stims/Deliberation/melissa-keizer-sV4Pd8wq5_o-unsplash.jpg","0","prac4","1","NaN","NaN","original","2000","0","0","NA","NA","NaN","NaN","Stimuli/Practice_stims/Deliberation/clay-banks-1KPfcPdbWFM-unsplash.jpg","Stimuli/Practice_stims/Deliberation/melissa-keizer-sV4Pd8wq5_o-unsplash.jpg","NA","NA","10","0.138","","","","","","","","","","","","","",""
"null","","deliberation_confirmation","html-keyboard-response","68","218544","0.0-2.0-8.0-2.0-0.0","12","11","0","0","","","","","null","","","","3","","","","","","","","","","","","","","","","","0","","","","","","","","","","10.138","0.862","","","","","","","","","","","","","",""
"null","","iti","html-keyboard-response","69","218651","0.0-2.0-8.0-4.0","12","11","0","0","","","","","null","","","","3","","","","","","","","","","","","","","","","","0","","","","","","","","","","11","2","","","","","","","","","","","","","",""
"1580","","practice_over","html-keyboard-response","70","220233","0.0-2.0-8.0-5.0-0.0","12","11","0","0","","","","","83","","","","3","","","","","","","","","","","","","","","","","","","","","","","","","","","","","","","","","","","","","","","","","",""
"1351","","start_run","html-keyboard-response","71","221588","0.0-2.0-8.0-5.0-1.0","12","11","0","0","","","","","84","","","","","","","","","","","","","","","","","","","","","","","","","","","","","","","","","","","","","","","","","","","","","",""
"281","","deliberation","html-keyboard-response","72","221872","0.0-2.0-10.0-0.0","12","11","0","0","","","","","50","","","","4","1","58","24","objects","faces","50","50","Stimuli/Experimental_stims/objects/mockup-graphics-PNsj6RiHAF4-unsplash.jpg","Stimuli/Experimental_stims/faces/abstral-official-cyOKLSgkgCE-unsplash.jpg","0","D","0","NaN","NaN","original","2000","1","1","58","24","objects","faces","Stimuli/Experimental_stims/objects/mockup-graphics-PNsj6RiHAF4-unsplash.jpg","Stimuli/Experimental_stims/faces/abstral-official-cyOKLSgkgCE-unsplash.jpg","50","50","0","0.281","","","","","","","","","","","","","",""
"null","","deliberation_confirmation","html-keyboard-response","73","222602","0.0-2.0-10.0-2.0-0.0","12","11","0","0","","","","","null","","","","4","","","","","","","","","","","","","","","","","1","","","","","","","","","","0.281","0.719","","","","","","","","","","","","","",""
"null","","iti","html-keyboard-response","74","222706","0.0-2.0-10.0-4.0","12","11","0","0","","","","","null","","","","4","","","","","","","","","","","","","","","","","1","","","","","","","","","","1","2","","","","","","","","","","","","","",""
"269","","deliberation","html-keyboard-response","75","222978","0.0-2.0-12.0-0.0","12","11","0","0","","","","","50","","","","5","1","44","53","body_parts","objects","50","50","Stimuli/Experimental_stims/body_parts/pure-julia-9lVaya31sMk-unsplash.jpg","Stimuli/Experimental_stims/objects/insung-yoon-w2JtIQQXoRU-unsplash.jpg","0","K","0","NaN","NaN","original","1500","1","1","44","53","body_parts","objects","Stimuli/Experimental_stims/body_parts/pure-julia-9lVaya31sMk-unsplash.jpg","Stimuli/Experimental_stims/objects/insung-yoon-w2JtIQQXoRU-unsplash.jpg","50","50","3","0.269","","","","","","","","","","","","","",""
"null","","deliberation_confirmation","html-keyboard-response","76","223717","0.0-2.0-12.0-2.0-0.0","12","11","0","0","","","","","null","","","","5","","","","","","","","","","","","","","","","","1","","","","","","","","","","3.269","0.731","","","","","","","","","","","","","",""
"null","","iti","html-keyboard-response","77","223827","0.0-2.0-12.0-4.0","12","11","0","0","","","","","null","","","","5","","","","","","","","","","","","","","","","","1","","","","","","","","","","4","1.5","","","","","","","","","","","","","",""
"278","","deliberation","html-keyboard-response","78","224108","0.0-2.0-14.0-0.0","12","11","0","0","","","","","50","","","","6","","","","","","","","","","0","I","0","561","right","scramble","2000","1","1","39","18","body_parts","outdoor_scenes","Stimuli/Experimental_stims/scramble/body_parts/scrambled_jonathan-borba-hTwH8QFkPMs-unsplash.jpg","Stimuli/Experimental_stims/scramble/outdoor_scenes/scrambled_meng-ji-8BH_M-53CyA-unsplash.jpg","NaN","NaN","5.5","0.561","false","561","","","","","","","","","","","",""
"542","","scramble_instruction","html-keyboard-response","79","224653","0.0-2.0-14.0-1.0-0.0","12","11","0","0","","","","","50","","","","6","1","39","18","body_parts","outdoor_scenes","","","","","0","","","","","","","1","","","","","","","","","","6.061","0.542","","","0","","","","","","","","","","",""
"null","","deliberation_confirmation","html-keyboard-response","80","224656","0.0-2.0-14.0-2.0-0.0","12","11","0","0","","","","","null","","","","6","","","","","","","","","","","","","","","","","1","","","","","","","","","","6.603","-0.103","","","","","","","","","","","","","",""
"null","","iti","html-keyboard-response","81","224764","0.0-2.0-14.0-4.0","12","11","0","0","","","","","null","","","","6","","","","","","","","","","","","","","","","","1","","","","","","","","","","6.5","2","","","","","","","","","","","","","",""
"266","","deliberation","html-keyboard-response","82","225033","0.0-2.0-16.0-0.0","12","11","0","0","","","","","50","","","","7","","","","","","","","","","0","L","0","381","left","scramble","1000","1","1","45","34","body_parts","faces","Stimuli/Experimental_stims/scramble/body_parts/scrambled_sincerely-media-7TBFwUQA6Xk-unsplash.jpg","Stimuli/Experimental_stims/scramble/faces/scrambled_olena-sergienko-0TSd6uCKTKc-unsplash.jpg","NaN","NaN","8.5","0.381","false","381","","","","","","","","","","","",""
"308","","scramble_instruction","html-keyboard-response","83","225343","0.0-2.0-16.0-1.0-0.0","12","11","0","0","","","","","50","","","","7","1","45","34","body_parts","faces","","","","","0","","","","","","","1","","","","","","","","","","8.881","0.308","","","1","","","","","","","","","","",""
"null","","deliberation_confirmation","html-keyboard-response","84","225669","0.0-2.0-16.0-2.0-0.0","12","11","0","0","","","","","null","","","","7","","","","","","","","","","","","","","","","","1","","","","","","","","","","9.189","0.311","","","","","","","","","","","","","",""
"null","","iti","html-keyboard-response","85","225783","0.0-2.0-16.0-4.0","12","11","0","0","","","","","null","","","","7","","","","","","","","","","","","","","","","","1","","","","","","","","","","9.5","1","","","","","","","","","","","","","",""
"46","","deliberation","html-keyboard-response","86","225832","0.0-2.0-18.0-0.0","12","11","0","0","","","","","50","","","","8","1","55","47","objects","body_parts","50","50","Stimuli/Experimental_stims/objects/jiangxulei1990-eIzzzwtkBjU-unsplash.jpg","Stimuli/Experimental_stims/body_parts/tucker-good-36skLT5jZcc-unsplash.jpg","0","E","0","NaN","NaN","original","3000","1","1","55","47","objects","body_parts","Stimuli/Experimental_stims/objects/jiangxulei1990-eIzzzwtkBjU-unsplash.jpg","Stimuli/Experimental_stims/body_parts/tucker-good-36skLT5jZcc-unsplash.jpg","50","50","10.5","0.046","","","","","","","","","","","","","",""
"null","","deliberation_confirmation","html-keyboard-response","87","226797","0.0-2.0-18.0-2.0-0.0","12","11","0","0","","","","","null","","","","8","","","","","","","","","","","","","","","","","1","","","","","","","","","","10.546","0.954","","","","","","","","","","","","","",""
"null","","iti","html-keyboard-response","88","226909","0.0-2.0-18.0-4.0","12","11","0","0","","","","","null","","","","8","","","","","","","","","","","","","","","","","1","","","","","","","","","","11.5","3","","","","","","","","","","","","","",""
"143","","deliberation","html-keyboard-response","89","227055","0.0-2.0-20.0-0.0","12","11","0","0","","","","","50","","","","9","","","","","","","","","","0","G","0","1791","right","scramble","3000","1","1","59","22","objects","outdoor_scenes","Stimuli/Experimental_stims/scramble/objects/scrambled_ronaldo-arthur-vidal-Cdz_lvnl37k-unsplash.jpg","Stimuli/Experimental_stims/scramble/outdoor_scenes/scrambled_stephen-leonardi-gyIRjKPXupE-unsplash.jpg","NaN","NaN","14.5","1.791","false","1791","","","","","","","","","","","",""
"273","","scramble_instruction","html-keyboard-response","90","227331","0.0-2.0-20.0-1.0-0.0","12","11","0","0","","","","","50","","","","9","1","59","22","objects","outdoor_scenes","","","","","0","","","","","","","1","","","","","","","","","","16.291","0.273","","","0","","","","","","","","","","",""
"null","","deliberation_confirmation","html-keyboard-response","91","227334","0.0-2.0-20.0-2.0-0.0","12","11","0","0","","","","","null","","","","9","","","","","","","","","","","","","","","","","1","","","","","","","","","","16.564","-1.064","","","","","","","","","","","","","",""
"null","","iti","html-keyboard-response","92","227441","0.0-2.0-20.0-4.0","12","11","0","0","","","","","null","","","","9","","","","","","","","","","","","","","","","","1","","","","","","","","","","15.5","3","","","","","","","","","","","","","",""
"149","","deliberation","html-keyboard-response","93","227593","0.0-2.0-22.0-0.0","12","11","0","0","","","","","50","","","","10","1","25","14","faces","outdoor_scenes","50","50","Stimuli/Experimental_stims/faces/aiony-haust-jmATI5Q_YgY-unsplash.jpg","Stimuli/Experimental_stims/outdoor_scenes/bruno-van-der-kraan-qez8mNJ3ilU-unsplash.jpg","0","H","0","NaN","NaN","original","2000","1","1","25","14","faces","outdoor_scenes","Stimuli/Experimental_stims/faces/aiony-haust-jmATI5Q_YgY-unsplash.jpg","Stimuli/Experimental_stims/outdoor_scenes/bruno-van-der-kraan-qez8mNJ3ilU-unsplash.jpg","50","50","18.5","0.149","","","","","","","","","","","","","",""
"null","","deliberation_confirmation","html-keyboard-response","94","228452","0.0-2.0-22.0-2.0-0.0","12","11","0","0","","","","","null","","","","10","","","","","","","","","","","","","","","","","1","","","","","","","","","","18.649","0.851","","","","","","","","","","","","","",""
"null","","iti","html-keyboard-response","95","228562","0.0-2.0-22.0-4.0","12","11","0","0","","","","","null","","","","10","","","","","","","","","","","","","","","","","1","","","","","","","","","","19.5","2","","","","","","","","","","","","","",""
"80","","deliberation","html-keyboard-response","96","228645","0.0-2.0-24.0-0.0","12","11","0","0","","","","","50","","","","11","","","","","","","","","","0","B","0","1989","right","scramble","3500","1","1","23","33","outdoor_scenes","faces","Stimuli/Experimental_stims/scramble/outdoor_scenes/scrambled_yuriy-bogdanov-W51VK3Obcj0-unsplash.jpg","Stimuli/Experimental_stims/scramble/faces/scrambled_leilani-angel-K84vnnzxmTQ-unsplash.jpg","NaN","NaN","21.5","1.989","false","1989","","","","","","","","","","","",""
"300","","scramble_instruction","html-keyboard-response","97","228948","0.0-2.0-24.0-1.0-0.0","12","11","0","0","","","","","50","","","","11","1","23","33","outdoor_scenes","faces","","","","","0","","","","","","","1","","","","","","","","","","23.489","0.3","","","0","","","","","","","","","","",""
"null","","deliberation_confirmation","html-keyboard-response","98","228951","0.0-2.0-24.0-2.0-0.0","12","11","0","0","","","","","null","","","","11","","","","","","","","","","","","","","","","","1","","","","","","","","","","23.789","-1.289","","","","","","","","","","","","","",""
"null","","iti","html-keyboard-response","99","229058","0.0-2.0-24.0-4.0","12","11","0","0","","","","","null","","","","11","","","","","","","","","","","","","","","","","1","","","","","","","","","","22.5","3.5","","","","","","","","","","","","","",""
"190","","deliberation","html-keyboard-response","100","229252","0.0-2.0-26.0-0.0","12","11","0","0","","","","","50","","","","12","1","45","34","body_parts","faces","50","50","Stimuli/Experimental_stims/body_parts/sincerely-media-7TBFwUQA6Xk-unsplash.jpg","Stimuli/Experimental_stims/faces/olena-sergienko-0TSd6uCKTKc-unsplash.jpg","0","L","0","NaN","NaN","original","3000","1","1","45","34","body_parts","faces","Stimuli/Experimental_stims/body_parts/sincerely-media-7TBFwUQA6Xk-unsplash.jpg","Stimuli/Experimental_stims/faces/olena-sergienko-0TSd6uCKTKc-unsplash.jpg","50","50","26","0.19","","","","","","","","","","","","","",""
"null","","deliberation_confirmation","html-keyboard-response","101","230067","0.0-2.0-26.0-2.0-0.0","12","11","0","0","","","","","null","","","","12","","","","","","","","","","","","","","","","","1","","","","","","","","","","26.19","0.81","","","","","","","","","","","","","",""
"null","","iti","html-keyboard-response","102","230179","0.0-2.0-26.0-4.0","12","11","0","0","","","","","null","","","","12","","","","","","","","","","","","","","","","","1","","","","","","","","","","27","3","","","","","","","","","","","","","",""
"210","","deliberation","html-keyboard-response","103","230392","0.0-2.0-28.0-0.0","12","11","0","0","","","","","50","","","","13","","","","","","","","","","0","C","0","1727","left","scramble","1500","1","1","17","40","outdoor_scenes","body_parts","Stimuli/Experimental_stims/scramble/outdoor_scenes/scrambled_jeff-king-bJHWJeiHfHc-unsplash.jpg","Stimuli/Experimental_stims/scramble/body_parts/scrambled_klara-kulikova-TcUfF24fUMY-unsplash.jpg","NaN","NaN","30","1.727","false","1727","","","","","","","","","","","",""
"289","","scramble_instruction","html-keyboard-response","104","230683","0.0-2.0-28.0-1.0-0.0","12","11","0","0","","","","","50","","","","13","1","17","40","outdoor_scenes","body_parts","","","","","0","","","","","","","1","","","","","","","","","","31.727","0.289","","","1","","","","","","","","","","",""
"null","","deliberation_confirmation","html-keyboard-response","105","230686","0.0-2.0-28.0-2.0-0.0","12","11","0","0","","","","","null","","","","13","","","","","","","","","","","","","","","","","1","","","","","","","","","","32.016","-1.016","","","","","","","","","","","","","",""
"null","","iti","html-keyboard-response","106","230794","0.0-2.0-28.0-4.0","12","11","0","0","","","","","null","","","","13","","","","","","","","","","","","","","","","","1","","","","","","","","","","31","1.5","","","","","","","","","","","","","",""
"197","","deliberation","html-keyboard-response","107","230994","0.0-2.0-30.0-0.0","12","11","0","0","","","","","50","","","","14","1","21","57","outdoor_scenes","objects","50","50","Stimuli/Experimental_stims/outdoor_scenes/sergey-pesterev-y-b_FOmJXdg-unsplash.jpg","Stimuli/Experimental_stims/objects/kuiye-chen-NuOGFo4PudE-unsplash.jpg","0","A","0","NaN","NaN","original","1000","1","1","21","57","outdoor_scenes","objects","Stimuli/Experimental_stims/outdoor_scenes/sergey-pesterev-y-b_FOmJXdg-unsplash.jpg","Stimuli/Experimental_stims/objects/kuiye-chen-NuOGFo4PudE-unsplash.jpg","50","50","32.5","0.197","","","","","","","","","","","","","",""
"null","","deliberation_confirmation","html-keyboard-response","108","231803","0.0-2.0-30.0-2.0-0.0","12","11","0","0","","","","","null","","","","14","","","","","","","","","","","","","","","","","1","","","","","","","","","","32.697","0.803","","","","","","","","","","","","","",""
"null","","iti","html-keyboard-response","109","231915","0.0-2.0-30.0-4.0","12","11","0","0","","","","","null","","","","14","","","","","","","","","","","","","","","","","1","","","","","","","","","","33.5","1","","","","","","","","","","","","","",""
"180","","deliberation","html-keyboard-response","110","232097","0.0-2.0-32.0-0.0","12","11","0","0","","","","","50","","","","15","1","28","36","faces","body_parts","50","50","Stimuli/Experimental_stims/faces/erik-lucatero-d2MSDujJl2g-unsplash.jpg","Stimuli/Experimental_stims/body_parts/callum-skelton-3KLMq7y46nA-unsplash.jpg","0","F","0","NaN","NaN","original","3500","1","1","28","36","faces","body_parts","Stimuli/Experimental_stims/faces/erik-lucatero-d2MSDujJl2g-unsplash.jpg","Stimuli/Experimental_stims/body_parts/callum-skelton-3KLMq7y46nA-unsplash.jpg","50","50","34.5","0.18","","","","","","","","","","","","","",""
"null","","deliberation_confirmation","html-keyboard-response","111","232923","0.0-2.0-32.0-2.0-0.0","12","11","0","0","","","","","null","","","","15","","","","","","","","","","","","","","","","","1","","","","","","","","","","34.68","0.82","","","","","","","","","","","","","",""
"null","","iti","html-keyboard-response","112","233036","0.0-2.0-32.0-4.0","12","11","0","0","","","","","null","","","","15","","","","","","","","","","","","","","","","","1","","","","","","","","","","35.5","3.5","","","","","","","","","","","","","",""
"36","","deliberation","html-keyboard-response","113","233075","0.0-2.0-34.0-0.0","12","11","0","0","","","","","50","","","","16","","","","","","","","","","0","K","0","414","left","scramble","1500","1","1","44","53","body_parts","objects","Stimuli/Experimental_stims/scramble/body_parts/scrambled_pure-julia-9lVaya31sMk-unsplash.jpg","Stimuli/Experimental_stims/scramble/objects/scrambled_insung-yoon-w2JtIQQXoRU-unsplash.jpg","NaN","NaN","39","0.414","false","414","","","","","","","","","","","",""
"293","","scramble_instruction","html-keyboard-response","114","233371","0.0-2.0-34.0-1.0-0.0","12","11","0","0","","","","","50","","","","16","1","44","53","body_parts","objects","","","","","0","","","","","","","1","","","","","","","","","","39.414","0.293","","","1","","","","","","","","","","",""
"null","","deliberation_confirmation","html-keyboard-response","115","233676","0.0-2.0-34.0-2.0-0.0","12","11","0","0","","","","","null","","","","16","","","","","","","","","","","","","","","","","1","","","","","","","","","","39.707","0.293","","","","","","","","","","","","","",""
"null","","iti","html-keyboard-response","116","233786","0.0-2.0-34.0-4.0","12","11","0","0","","","","","null","","","","16","","","","","","","","","","","","","","","","","1","","","","","","","","","","40","1.5","","","","","","","","","","","","","",""
"189","","deliberation","html-keyboard-response","117","233978","0.0-2.0-36.0-0.0","12","11","0","0","","","","","50","","","","17","","","","","","","","","","0","F","0","1872","right","scramble","1000","1","1","28","36","faces","body_parts","Stimuli/Experimental_stims/scramble/faces/scrambled_erik-lucatero-d2MSDujJl2g-unsplash.jpg","Stimuli/Experimental_stims/scramble/body_parts/scrambled_callum-skelton-3KLMq7y46nA-unsplash.jpg","NaN","NaN","41.5","1.872","false","1872","","","","","","","","","","","",""
"339","","scramble_instruction","html-keyboard-response","118","234318","0.0-2.0-36.0-1.0-0.0","12","11","0","0","","","","","50","","","","17","1","28","36","faces","body_parts","","","","","0","","","","","","","1","","","","","","","","","","43.372","0.339","","","0","","","","","","","","","","",""
"null","","deliberation_confirmation","html-keyboard-response","119","234321","0.0-2.0-36.0-2.0-0.0","12","11","0","0","","","","","null","","","","17","","","","","","","","","","","","","","","","","1","","","","","","","","","","43.711","-1.211","","","","","","","","","","","","","",""
"null","","iti","html-keyboard-response","120","234427","0.0-2.0-36.0-4.0","12","11","0","0","","","","","null","","","","17","","","","","","","","","","","","","","","","","1","","","","","","","","","","42.5","1","","","","","","","","","","","","","",""
"193","","deliberation","html-keyboard-response","121","234623","0.0-2.0-38.0-0.0","12","11","0","0","","","","","50","","","","18","1","17","40","outdoor_scenes","body_parts","50","50","Stimuli/Experimental_stims/outdoor_scenes/jeff-king-bJHWJeiHfHc-unsplash.jpg","Stimuli/Experimental_stims/body_parts/klara-kulikova-TcUfF24fUMY-unsplash.jpg","0","C","0","NaN","NaN","original","1000","1","1","17","40","outdoor_scenes","body_parts","Stimuli/Experimental_stims/outdoor_scenes/jeff-king-bJHWJeiHfHc-unsplash.jpg","Stimuli/Experimental_stims/body_parts/klara-kulikova-TcUfF24fUMY-unsplash.jpg","50","50","43.5","0.193","","","","","","","","","","","","","",""
"null","","deliberation_confirmation","html-keyboard-response","122","235434","0.0-2.0-38.0-2.0-0.0","12","11","0","0","","","","","null","","","","18","","","","","","","","","","","","","","","","","1","","","","","","","","","","43.693","0.807","","","","","","","","","","","","","",""
"null","","iti","html-keyboard-response","123","235539","0.0-2.0-38.0-4.0","12","11","0","0","","","","","null","","","","18","","","","","","","","","","","","","","","","","1","","","","","","","","","","44.5","1","","","","","","","","","","","","","",""
"142","","deliberation","html-keyboard-response","124","235683","0.0-2.0-40.0-0.0","12","11","0","0","","","","","50","","","","19","1","23","33","outdoor_scenes","faces","50","50","Stimuli/Experimental_stims/outdoor_scenes/yuriy-bogdanov-W51VK3Obcj0-unsplash.jpg","Stimuli/Experimental_stims/faces/leilani-angel-K84vnnzxmTQ-unsplash.jpg","0","B","0","NaN","NaN","original","1000","1","1","23","33","outdoor_scenes","faces","Stimuli/Experimental_stims/outdoor_scenes/yuriy-bogdanov-W51VK3Obcj0-unsplash.jpg","Stimuli/Experimental_stims/faces/leilani-angel-K84vnnzxmTQ-unsplash.jpg","50","50","45.5","0.142","","","","","","","","","","","","","",""
"null","","deliberation_confirmation","html-keyboard-response","125","236550","0.0-2.0-40.0-2.0-0.0","12","11","0","0","","","","","null","","","","19","","","","","","","","","","","","","","","","","1","","","","","","","","","","45.642","0.858","","","","","","","","","","","","","",""
"null","","iti","html-keyboard-response","126","236657","0.0-2.0-40.0-4.0","12","11","0","0","","","","","null","","","","19","","","","","","","","","","","","","","","","","1","","","","","","","","","","46.5","1","","","","","","","","","","","","","",""
"99","","deliberation","html-keyboard-response","127","236759","0.0-2.0-42.0-0.0","12","11","0","0","","","","","50","","","","20","","","","","","","","","","0","D","0","1375","left","scramble","1500","1","1","58","24","objects","faces","Stimuli/Experimental_stims/scramble/objects/scrambled_mockup-graphics-PNsj6RiHAF4-unsplash.jpg","Stimuli/Experimental_stims/scramble/faces/scrambled_abstral-official-cyOKLSgkgCE-unsplash.jpg","NaN","NaN","47.5","1.375","false","1375","","","","","","","","","","","",""
"459","","scramble_instruction","html-keyboard-response","128","237219","0.0-2.0-42.0-1.0-0.0","12","11","0","0","","","","","50","","","","20","1","58","24","objects","faces","","","","","0","","","","","","","1","","","","","","","","","","48.875","0.459","","","1","","","","","","","","","","",""
"null","","deliberation_confirmation","html-keyboard-response","129","237222","0.0-2.0-42.0-2.0-0.0","12","11","0","0","","","","","null","","","","20","","","","","","","","","","","","","","","","","1","","","","","","","","","","49.334","-0.834","","","","","","","","","","","","","",""
"null","","iti","html-keyboard-response","130","237330","0.0-2.0-42.0-4.0","12","11","0","0","","","","","null","","","","20","","","","","","","","","","","","","","","","","1","","","","","","","","","","48.5","1.5","","","","","","","","","","","","","",""
"307","","deliberation","html-keyboard-response","131","237639","0.0-2.0-44.0-0.0","12","11","0","0","","","","","50","","","","21","1","39","18","body_parts","outdoor_scenes","50","50","Stimuli/Experimental_stims/body_parts/jonathan-borba-hTwH8QFkPMs-unsplash.jpg","Stimuli/Experimental_stims/outdoor_scenes/meng-ji-8BH_M-53CyA-unsplash.jpg","0","I","0","NaN","NaN","original","1500","1","1","39","18","body_parts","outdoor_scenes","Stimuli/Experimental_stims/body_parts/jonathan-borba-hTwH8QFkPMs-unsplash.jpg","Stimuli/Experimental_stims/outdoor_scenes/meng-ji-8BH_M-53CyA-unsplash.jpg","50","50","50","0.307","","","","","","","","","","","","","",""
"null","","deliberation_confirmation","html-keyboard-response","132","238340","0.0-2.0-44.0-2.0-0.0","12","11","0","0","","","","","null","","","","21","","","","","","","","","","","","","","","","","1","","","","","","","","","","50.307","0.693","","","","","","","","","","","","","",""
"null","","iti","html-keyboard-response","133","238451","0.0-2.0-44.0-4.0","12","11","0","0","","","","","null","","","","21","","","","","","","","","","","","","","","","","1","","","","","","","","","","51","1.5","","","","","","","","","","","","","",""
"230","","deliberation","html-keyboard-response","134","238684","0.0-2.0-46.0-0.0","12","11","0","0","","","","","50","","","","22","","","","","","","","","","0","H","0","1593","right","scramble","2000","1","1","25","14","faces","outdoor_scenes","Stimuli/Experimental_stims/scramble/faces/scrambled_aiony-haust-jmATI5Q_YgY-unsplash.jpg","Stimuli/Experimental_stims/scramble/outdoor_scenes/scrambled_bruno-van-der-kraan-qez8mNJ3ilU-unsplash.jpg","NaN","NaN","52.5","1.593","false","1593","","","","","","","","","","","",""
"367","","scramble_instruction","html-keyboard-response","135","239054","0.0-2.0-46.0-1.0-0.0","12","11","0","0","","","","","50","","","","22","1","25","14","faces","outdoor_scenes","","","","","0","","","","","","","1","","","","","","","","","","54.093","0.367","","","0","","","","","","","","","","",""
"null","","deliberation_confirmation","html-keyboard-response","136","239057","0.0-2.0-46.0-2.0-0.0","12","11","0","0","","","","","null","","","","22","","","","","","","","","","","","","","","","","1","","","","","","","","","","54.46","-0.96","","","","","","","","","","","","","",""
"null","","iti","html-keyboard-response","137","239161","0.0-2.0-46.0-4.0","12","11","0","0","","","","","null","","","","22","","","","","","","","","","","","","","","","","1","","","","","","","","","","53.5","2","","","","","","","","","","","","","",""
"183","","deliberation","html-keyboard-response","138","239347","0.0-2.0-48.0-0.0","12","11","0","0","","","","","50","","","","23","1","59","22","objects","outdoor_scenes","50","50","Stimuli/Experimental_stims/objects/ronaldo-arthur-vidal-Cdz_lvnl37k-unsplash.jpg","Stimuli/Experimental_stims/outdoor_scenes/stephen-leonardi-gyIRjKPXupE-unsplash.jpg","0","G","0","NaN","NaN","original","1500","1","1","59","22","objects","outdoor_scenes","Stimuli/Experimental_stims/objects/ronaldo-arthur-vidal-Cdz_lvnl37k-unsplash.jpg","Stimuli/Experimental_stims/outdoor_scenes/stephen-leonardi-gyIRjKPXupE-unsplash.jpg","50","50","55.5","0.183","","","","","","","","","","","","","",""
"null","","deliberation_confirmation","html-keyboard-response","139","240170","0.0-2.0-48.0-2.0-0.0","12","11","0","0","","","","","null","","","","23","","","","","","","","","","","","","","","","","1","","","","","","","","","","55.683","0.817","","","","","","","","","","","","","",""
"null","","iti","html-keyboard-response","140","240274","0.0-2.0-48.0-4.0","12","11","0","0","","","","","null","","","","23","","","","","","","","","","","","","","","","","1","","","","","","","","","","56.5","1.5","","","","","","","","","","","","","",""
"293","","deliberation","html-keyboard-response","141","240570","0.0-2.0-50.0-0.0","12","11","0","0","","","","","50","","","","24","","","","","","","","","","0","E","0","1725","left","scramble","3000","1","1","55","47","objects","body_parts","Stimuli/Experimental_stims/scramble/objects/scrambled_jiangxulei1990-eIzzzwtkBjU-unsplash.jpg","Stimuli/Experimental_stims/scramble/body_parts/scrambled_tucker-good-36skLT5jZcc-unsplash.jpg","NaN","NaN","58","1.725","false","1725","","","","","","","","","","","",""
"373","","scramble_instruction","html-keyboard-response","142","240946","0.0-2.0-50.0-1.0-0.0","12","11","0","0","","","","","50","","","","24","1","55","47","objects","body_parts","","","","","0","","","","","","","1","","","","","","","","","","59.725","0.373","","","1","","","","","","","","","","",""
"null","","deliberation_confirmation","html-keyboard-response","143","240949","0.0-2.0-50.0-2.0-0.0","12","11","0","0","","","","","null","","","","24","","","","","","","","","","","","","","","","","1","","","","","","","","","","60.098","-1.098","","","","","","","","","","","","","",""
"null","","iti","html-keyboard-response","144","241057","0.0-2.0-50.0-4.0","12","11","0","0","","","","","null","","","","24","","","","","","","","","","","","","","","","","1","","","","","","","","","","59","3","","","","","","","","","","","","","",""
"227","","deliberation","html-keyboard-response","145","241287","0.0-2.0-52.0-0.0","12","11","0","0","","","","","50","","","","25","1","32","48","faces","objects","50","50","Stimuli/Experimental_stims/faces/justin-chen-J7Cf1Gch49E-unsplash.jpg","Stimuli/Experimental_stims/objects/alexander-andrews-JYGnB9gTCls-unsplash.jpg","0","J","0","NaN","NaN","original","1000","1","1","32","48","faces","objects","Stimuli/Experimental_stims/faces/justin-chen-J7Cf1Gch49E-unsplash.jpg","Stimuli/Experimental_stims/objects/alexander-andrews-JYGnB9gTCls-unsplash.jpg","50","50","62","0.227","","","","","","","","","","","","","",""
"null","","deliberation_confirmation","html-keyboard-response","146","242068","0.0-2.0-52.0-2.0-0.0","12","11","0","0","","","","","null","","","","25","","","","","","","","","","","","","","","","","1","","","","","","","","","","62.227","0.773","","","","","","","","","","","","","",""
"null","","iti","html-keyboard-response","147","242178","0.0-2.0-52.0-4.0","12","11","0","0","","","","","null","","","","25","","","","","","","","","","","","","","","","","1","","","","","","","","","","63","1","","","","","","","","","","","","","",""
"190","","deliberation","html-keyboard-response","148","242370","0.0-2.0-54.0-0.0","12","11","0","0","","","","","50","","","","26","","","","","","","","","","0","A","0","1086","right","scramble","1000","1","1","21","57","outdoor_scenes","objects","Stimuli/Experimental_stims/scramble/outdoor_scenes/scrambled_sergey-pesterev-y-b_FOmJXdg-unsplash.jpg","Stimuli/Experimental_stims/scramble/objects/scrambled_kuiye-chen-NuOGFo4PudE-unsplash.jpg","NaN","NaN","64","1.086","false","1086","","","","","","","","","","","",""
"417","","scramble_instruction","html-keyboard-response","149","242789","0.0-2.0-54.0-1.0-0.0","12","11","0","0","","","","","50","","","","26","1","21","57","outdoor_scenes","objects","","","","","0","","","","","","","1","","","","","","","","","","65.086","0.417","","","0","","","","","","","","","","",""
"null","","deliberation_confirmation","html-keyboard-response","150","242793","0.0-2.0-54.0-2.0-0.0","12","11","0","0","","","","","null","","","","26","","","","","","","","","","","","","","","","","1","","","","","","","","","","65.503","-0.503","","","","","","","","","","","","","",""
"null","","iti","html-keyboard-response","151","242902","0.0-2.0-54.0-4.0","12","11","0","0","","","","","null","","","","26","","","","","","","","","","","","","","","","","1","","","","","","","","","","65","1","","","","","","","","","","","","","",""
"482","","deliberation","html-keyboard-response","152","243386","0.0-2.0-56.0-0.0","12","11","0","0","","","","","50","","","","27","","","","","","","","","","0","J","0","1846","left","scramble","1000","1","1","32","48","faces","objects","Stimuli/Experimental_stims/scramble/faces/scrambled_justin-chen-J7Cf1Gch49E-unsplash.jpg","Stimuli/Experimental_stims/scramble/objects/scrambled_alexander-andrews-JYGnB9gTCls-unsplash.jpg","NaN","NaN","66","1.846","false","1846","","","","","","","","","","","",""
"362","","scramble_instruction","html-keyboard-response","153","243750","0.0-2.0-56.0-1.0-0.0","12","11","0","0","","","","","50","","","","27","1","32","48","faces","objects","","","","","0","","","","","","","1","","","","","","","","","","67.846","0.362","","","1","","","","","","","","","","",""
"null","","deliberation_confirmation","html-keyboard-response","154","243753","0.0-2.0-56.0-2.0-0.0","12","11","0","0","","","","","null","","","","27","","","","","","","","","","","","","","","","","1","","","","","","","","","","68.208","-1.208","","","","","","","","","","","","","",""
"null","","iti","html-keyboard-response","155","243859","0.0-2.0-56.0-4.0","12","11","0","0","","","","","null","","","","27","","","","","","","","","","","","","","","","","1","","","","","","","","","","67","1","","","","","","","","","","","","","",""
"239","","deliberation","html-keyboard-response","156","244100","0.0-2.0-58.0-0.0","12","11","0","0","","","","","50","","","","28","1","45","34","body_parts","faces","50","50","Stimuli/Experimental_stims/body_parts/sincerely-media-7TBFwUQA6Xk-unsplash.jpg","Stimuli/Experimental_stims/faces/olena-sergienko-0TSd6uCKTKc-unsplash.jpg","0","L","0","NaN","NaN","original","1000","2","1","45","34","body_parts","faces","Stimuli/Experimental_stims/body_parts/sincerely-media-7TBFwUQA6Xk-unsplash.jpg","Stimuli/Experimental_stims/faces/olena-sergienko-0TSd6uCKTKc-unsplash.jpg","50","50","68","0.239","","","","","","","","","","","","","",""
"null","","deliberation_confirmation","html-keyboard-response","157","244869","0.0-2.0-58.0-2.0-0.0","12","11","0","0","","","","","null","","","","28","","","","","","","","","","","","","","","","","2","","","","","","","","","","68.239","0.761","","","","","","","","","","","","","",""
"null","","iti","html-keyboard-response","158","244979","0.0-2.0-58.0-4.0","12","11","0","0","","","","","null","","","","28","","","","","","","","","","","","","","","","","2","","","","","","","","","","69","1","","","","","","","","","","","","","",""
"75","","deliberation","html-keyboard-response","159","245057","0.0-2.0-60.0-0.0","12","11","0","0","","","","","50","","","","29","","","","","","","","","","0","E","0","1619","left","scramble","2000","2","1","55","47","objects","body_parts","Stimuli/Experimental_stims/scramble/objects/scrambled_jiangxulei1990-eIzzzwtkBjU-unsplash.jpg","Stimuli/Experimental_stims/scramble/body_parts/scrambled_tucker-good-36skLT5jZcc-unsplash.jpg","NaN","NaN","70","1.619","false","1619","","","","","","","","","","","",""
"355","","scramble_instruction","html-keyboard-response","160","245415","0.0-2.0-60.0-1.0-0.0","12","11","0","0","","","","","50","","","","29","1","55","47","objects","body_parts","","","","","0","","","","","","","2","","","","","","","","","","71.619","0.355","","","1","","","","","","","","","","",""
"null","","deliberation_confirmation","html-keyboard-response","161","245419","0.0-2.0-60.0-2.0-0.0","12","11","0","0","","","","","null","","","","29","","","","","","","","","","","","","","","","","2","","","","","","","","","","71.974","-0.974","","","","","","","","","","","","","",""
"null","","iti","html-keyboard-response","162","245523","0.0-2.0-60.0-4.0","12","11","0","0","","","","","null","","","","29","","","","","","","","","","","","","","","","","2","","","","","","","","","","71","2","","","","","","","","","","","","","",""
"217","","deliberation","html-keyboard-response","163","245742","0.0-2.0-62.0-0.0","12","11","0","0","","","","","50","","","","30","1","25","14","faces","outdoor_scenes","50","50","Stimuli/Experimental_stims/faces/aiony-haust-jmATI5Q_YgY-unsplash.jpg","Stimuli/Experimental_stims/outdoor_scenes/bruno-van-der-kraan-qez8mNJ3ilU-unsplash.jpg","0","H","0","NaN","NaN","original","3000","2","1","25","14","faces","outdoor_scenes","Stimuli/Experimental_stims/faces/aiony-haust-jmATI5Q_YgY-unsplash.jpg","Stimuli/Experimental_stims/outdoor_scenes/bruno-van-der-kraan-qez8mNJ3ilU-unsplash.jpg","50","50","73","0.217","","","","","","","","","","","","","",""
"null","","deliberation_confirmation","html-keyboard-response","164","246534","0.0-2.0-62.0-2.0-0.0","12","11","0","0","","","","","null","","","","30","","","","","","","","","","","","","","","","","2","","","","","","","","","","73.217","0.783","","","","","","","","","","","","","",""
"null","","iti","html-keyboard-response","165","246646","0.0-2.0-62.0-4.0","12","11","0","0","","","","","null","","","","30","","","","","","","","","","","","","","","","","2","","","","","","","","","","74","3","","","","","","","","","","","","","",""
"204","","deliberation","html-keyboard-response","166","246853","0.0-2.0-64.0-0.0","12","11","0","0","","","","","50","","","","31","","","","","","","","","","0","G","0","1892","left","scramble","1000","2","1","59","22","objects","outdoor_scenes","Stimuli/Experimental_stims/scramble/objects/scrambled_ronaldo-arthur-vidal-Cdz_lvnl37k-unsplash.jpg","Stimuli/Experimental_stims/scramble/outdoor_scenes/scrambled_stephen-leonardi-gyIRjKPXupE-unsplash.jpg","NaN","NaN","77","1.892","false","1892","","","","","","","","","","","",""
"302","","scramble_instruction","html-keyboard-response","167","247156","0.0-2.0-64.0-1.0-0.0","12","11","0","0","","","","","50","","","","31","1","59","22","objects","outdoor_scenes","","","","","0","","","","","","","2","","","","","","","","","","78.892","0.302","","","1","","","","","","","","","","",""
"null","","deliberation_confirmation","html-keyboard-response","168","247160","0.0-2.0-64.0-2.0-0.0","12","11","0","0","","","","","null","","","","31","","","","","","","","","","","","","","","","","2","","","","","","","","","","79.194","-1.194","","","","","","","","","","","","","",""
"null","","iti","html-keyboard-response","169","247266","0.0-2.0-64.0-4.0","12","11","0","0","","","","","null","","","","31","","","","","","","","","","","","","","","","","2","","","","","","","","","","78","1","","","","","","","","","","","","","",""
"245","","deliberation","html-keyboard-response","170","247514","0.0-2.0-66.0-0.0","12","11","0","0","","","","","50","","","","32","","","","","","","","","","0","J","0","1723","right","scramble","1000","2","1","32","48","faces","objects","Stimuli/Experimental_stims/scramble/faces/scrambled_justin-chen-J7Cf1Gch49E-unsplash.jpg","Stimuli/Experimental_stims/scramble/objects/scrambled_alexander-andrews-JYGnB9gTCls-unsplash.jpg","NaN","NaN","79","1.723","false","1723","","","","","","","","","","","",""
"293","","scramble_instruction","html-keyboard-response","171","247810","0.0-2.0-66.0-1.0-0.0","12","11","0","0","","","","","50","","","","32","1","32","48","faces","objects","","","","","0","","","","","","","2","","","","","","","","","","80.723","0.293","","","0","","","","","","","","","","",""
"null","","deliberation_confirmation","html-keyboard-response","172","247813","0.0-2.0-66.0-2.0-0.0","12","11","0","0","","","","","null","","","","32","","","","","","","","","","","","","","","","","2","","","","","","","","","","81.016","-1.016","","","","","","","","","","","","","",""
"null","","iti","html-keyboard-response","173","247918","0.0-2.0-66.0-4.0","12","11","0","0","","","","","null","","","","32","","","","","","","","","","","","","","","","","2","","","","","","","","","","80","1","","","","","","","","","","","","","",""
"222","","deliberation","html-keyboard-response","174","248143","0.0-2.0-68.0-0.0","12","11","0","0","","","","","50","","","","33","","","","","","","","","","0","K","0","1754","right","scramble","1500","2","1","44","53","body_parts","objects","Stimuli/Experimental_stims/scramble/body_parts/scrambled_pure-julia-9lVaya31sMk-unsplash.jpg","Stimuli/Experimental_stims/scramble/objects/scrambled_insung-yoon-w2JtIQQXoRU-unsplash.jpg","NaN","NaN","81","1.754","false","1754","","","","","","","","","","","",""
"318","","scramble_instruction","html-keyboard-response","175","248463","0.0-2.0-68.0-1.0-0.0","12","11","0","0","","","","","50","","","","33","1","44","53","body_parts","objects","","","","","0","","","","","","","2","","","","","","","","","","82.754","0.318","","","0","","","","","","","","","","",""
"null","","deliberation_confirmation","html-keyboard-response","176","248466","0.0-2.0-68.0-2.0-0.0","12","11","0","0","","","","","null","","","","33","","","","","","","","","","","","","","","","","2","","","","","","","","","","83.072","-1.072","","","","","","","","","","","","","",""
"null","","iti","html-keyboard-response","177","248569","0.0-2.0-68.0-4.0","12","11","0","0","","","","","null","","","","33","","","","","","","","","","","","","","","","","2","","","","","","","","","","82","1.5","","","","","","","","","","","","","",""
"262","","deliberation","html-keyboard-response","178","248833","0.0-2.0-70.0-0.0","12","11","0","0","","","","","50","","","","34","","","","","","","","","","0","F","0","1588","left","scramble","3500","2","1","28","36","faces","body_parts","Stimuli/Experimental_stims/scramble/faces/scrambled_erik-lucatero-d2MSDujJl2g-unsplash.jpg","Stimuli/Experimental_stims/scramble/body_parts/scrambled_callum-skelton-3KLMq7y46nA-unsplash.jpg","NaN","NaN","83.5","1.588","false","1588","","","","","","","","","","","",""
"311","","scramble_instruction","html-keyboard-response","179","249147","0.0-2.0-70.0-1.0-0.0","12","11","0","0","","","","","50","","","","34","1","28","36","faces","body_parts","","","","","0","","","","","","","2","","","","","","","","","","85.088","0.311","","","1","","","","","","","","","","",""
"null","","deliberation_confirmation","html-keyboard-response","180","249151","0.0-2.0-70.0-2.0-0.0","12","11","0","0","","","","","null","","","","34","","","","","","","","","","","","","","","","","2","","","","","","","","","","85.399","-0.899","","","","","","","","","","","","","",""
"null","","iti","html-keyboard-response","181","249257","0.0-2.0-70.0-4.0","12","11","0","0","","","","","null","","","","34","","","","","","","","","","","","","","","","","2","","","","","","","","","","84.5","3.5","","","","","","","","","","","","","",""
"209","","deliberation","html-keyboard-response","182","249468","0.0-2.0-72.0-0.0","12","11","0","0","","","","","50","","","","35","1","39","18","body_parts","outdoor_scenes","50","50","Stimuli/Experimental_stims/body_parts/jonathan-borba-hTwH8QFkPMs-unsplash.jpg","Stimuli/Experimental_stims/outdoor_scenes/meng-ji-8BH_M-53CyA-unsplash.jpg","0","I","0","NaN","NaN","original","1000","2","1","39","18","body_parts","outdoor_scenes","Stimuli/Experimental_stims/body_parts/jonathan-borba-hTwH8QFkPMs-unsplash.jpg","Stimuli/Experimental_stims/outdoor_scenes/meng-ji-8BH_M-53CyA-unsplash.jpg","50","50","88","0.209","","","","","","","","","","","","","",""
"null","","deliberation_confirmation","html-keyboard-response","183","250271","0.0-2.0-72.0-2.0-0.0","12","11","0","0","","","","","null","","","","35","","","","","","","","","","","","","","","","","2","","","","","","","","","","88.209","0.791","","","","","","","","","","","","","",""
"null","","iti","html-keyboard-response","184","250380","0.0-2.0-72.0-4.0","12","11","0","0","","","","","null","","","","35","","","","","","","","","","","","","","","","","2","","","","","","","","","","89","1","","","","","","","","","","","","","",""
"100","","deliberation","html-keyboard-response","185","250483","0.0-2.0-74.0-0.0","12","11","0","0","","","","","50","","","","36","1","58","24","objects","faces","50","50","Stimuli/Experimental_stims/objects/mockup-graphics-PNsj6RiHAF4-unsplash.jpg","Stimuli/Experimental_stims/faces/abstral-official-cyOKLSgkgCE-unsplash.jpg","0","D","0","NaN","NaN","original","1500","2","1","58","24","objects","faces","Stimuli/Experimental_stims/objects/mockup-graphics-PNsj6RiHAF4-unsplash.jpg","Stimuli/Experimental_stims/faces/abstral-official-cyOKLSgkgCE-unsplash.jpg","50","50","90","0.1","","","","","","","","","","","","","",""
"null","","deliberation_confirmation","html-keyboard-response","186","251394","0.0-2.0-74.0-2.0-0.0","12","11","0","0","","","","","null","","","","36","","","","","","","","","","","","","","","","","2","","","","","","","","","","90.1","0.9","","","","","","","","","","","","","",""
"null","","iti","html-keyboard-response","187","251499","0.0-2.0-74.0-4.0","12","11","0","0","","","","","null","","","","36","","","","","","","","","","","","","","","","","2","","","","","","","","","","91","1.5","","","","","","","","","","","","","",""
"277","","deliberation","html-keyboard-response","188","251779","0.0-2.0-76.0-0.0","12","11","0","0","","","","","50","","","","37","1","23","33","outdoor_scenes","faces","50","50","Stimuli/Experimental_stims/outdoor_scenes/yuriy-bogdanov-W51VK3Obcj0-unsplash.jpg","Stimuli/Experimental_stims/faces/leilani-angel-K84vnnzxmTQ-unsplash.jpg","0","B","0","NaN","NaN","original","1000","2","1","23","33","outdoor_scenes","faces","Stimuli/Experimental_stims/outdoor_scenes/yuriy-bogdanov-W51VK3Obcj0-unsplash.jpg","Stimuli/Experimental_stims/faces/leilani-angel-K84vnnzxmTQ-unsplash.jpg","50","50","92.5","0.277","","","","","","","","","","","","","",""
"null","","deliberation_confirmation","html-keyboard-response","189","252509","0.0-2.0-76.0-2.0-0.0","12","11","0","0","","","","","null","","","","37","","","","","","","","","","","","","","","","","2","","","","","","","","","","92.777","0.723","","","","","","","","","","","","","",""
"null","","iti","html-keyboard-response","190","252619","0.0-2.0-76.0-4.0","12","11","0","0","","","","","null","","","","37","","","","","","","","","","","","","","","","","2","","","","","","","","","","93.5","1","","","","","","","","","","","","","",""
"242","","deliberation","html-keyboard-response","191","252864","0.0-2.0-78.0-0.0","12","11","0","0","","","","","50","","","","38","1","28","36","faces","body_parts","50","50","Stimuli/Experimental_stims/faces/erik-lucatero-d2MSDujJl2g-unsplash.jpg","Stimuli/Experimental_stims/body_parts/callum-skelton-3KLMq7y46nA-unsplash.jpg","0","F","0","NaN","NaN","original","3500","2","1","28","36","faces","body_parts","Stimuli/Experimental_stims/faces/erik-lucatero-d2MSDujJl2g-unsplash.jpg","Stimuli/Experimental_stims/body_parts/callum-skelton-3KLMq7y46nA-unsplash.jpg","50","50","94.5","0.242","","","","","","","","","","","","","",""
"null","","deliberation_confirmation","html-keyboard-response","192","253629","0.0-2.0-78.0-2.0-0.0","12","11","0","0","","","","","null","","","","38","","","","","","","","","","","","","","","","","2","","","","","","","","","","94.742","0.758","","","","","","","","","","","","","",""
"null","","iti","html-keyboard-response","193","253742","0.0-2.0-78.0-4.0","12","11","0","0","","","","","null","","","","38","","","","","","","","","","","","","","","","","2","","","","","","","","","","95.5","3.5","","","","","","","","","","","","","",""
"194","","deliberation","html-keyboard-response","194","253940","0.0-2.0-80.0-0.0","12","11","0","0","","","","","50","","","","39","1","44","53","body_parts","objects","50","50","Stimuli/Experimental_stims/body_parts/pure-julia-9lVaya31sMk-unsplash.jpg","Stimuli/Experimental_stims/objects/insung-yoon-w2JtIQQXoRU-unsplash.jpg","0","K","0","NaN","NaN","original","3000","2","1","44","53","body_parts","objects","Stimuli/Experimental_stims/body_parts/pure-julia-9lVaya31sMk-unsplash.jpg","Stimuli/Experimental_stims/objects/insung-yoon-w2JtIQQXoRU-unsplash.jpg","50","50","99","0.194","","","","","","","","","","","","","",""
"null","","deliberation_confirmation","html-keyboard-response","195","254759","0.0-2.0-80.0-2.0-0.0","12","11","0","0","","","","","null","","","","39","","","","","","","","","","","","","","","","","2","","","","","","","","","","99.194","0.806","","","","","","","","","","","","","",""
"null","","iti","html-keyboard-response","196","254869","0.0-2.0-80.0-4.0","12","11","0","0","","","","","null","","","","39","","","","","","","","","","","","","","","","","2","","","","","","","","","","100","3","","","","","","","","","","","","","",""
"95","","deliberation","html-keyboard-response","197","254966","0.0-2.0-82.0-0.0","12","11","0","0","","","","","50","","","","40","","","","","","","","","","0","C","0","1478","left","scramble","1500","2","1","17","40","outdoor_scenes","body_parts","Stimuli/Experimental_stims/scramble/outdoor_scenes/scrambled_jeff-king-bJHWJeiHfHc-unsplash.jpg","Stimuli/Experimental_stims/scramble/body_parts/scrambled_klara-kulikova-TcUfF24fUMY-unsplash.jpg","NaN","NaN","103","1.478","false","1478","","","","","","","","","","","",""
"305","","scramble_instruction","html-keyboard-response","198","255274","0.0-2.0-82.0-1.0-0.0","12","11","0","0","","","","","50","","","","40","1","17","40","outdoor_scenes","body_parts","","","","","0","","","","","","","2","","","","","","","","","","104.478","0.305","","","1","","","","","","","","","","",""
"null","","deliberation_confirmation","html-keyboard-response","199","255277","0.0-2.0-82.0-2.0-0.0","12","11","0","0","","","","","null","","","","40","","","","","","","","","","","","","","","","","2","","","","","","","","","","104.783","-0.783","","","","","","","","","","","","","",""
"null","","iti","html-keyboard-response","200","255388","0.0-2.0-82.0-4.0","12","11","0","0","","","","","null","","","","40","","","","","","","","","","","","","","","","","2","","","","","","","","","","104","1.5","","","","","","","","","","","","","",""
"230","","deliberation","html-keyboard-response","201","255622","0.0-2.0-84.0-0.0","12","11","0","0","","","","","50","","","","41","","","","","","","","","","0","B","0","435","right","scramble","3000","2","1","23","33","outdoor_scenes","faces","Stimuli/Experimental_stims/scramble/outdoor_scenes/scrambled_yuriy-bogdanov-W51VK3Obcj0-unsplash.jpg","Stimuli/Experimental_stims/scramble/faces/scrambled_leilani-angel-K84vnnzxmTQ-unsplash.jpg","NaN","NaN","105.5","0.435","false","435","","","","","","","","","","","",""
"350","","scramble_instruction","html-keyboard-response","202","255974","0.0-2.0-84.0-1.0-0.0","12","11","0","0","","","","","50","","","","41","1","23","33","outdoor_scenes","faces","","","","","0","","","","","","","2","","","","","","","","","","105.935","0.35","","","0","","","","","","","","","","",""
"null","","deliberation_confirmation","html-keyboard-response","203","256198","0.0-2.0-84.0-2.0-0.0","12","11","0","0","","","","","null","","","","41","","","","","","","","","","","","","","","","","2","","","","","","","","","","106.285","0.215","","","","","","","","","","","","","",""
"null","","iti","html-keyboard-response","204","256307","0.0-2.0-84.0-4.0","12","11","0","0","","","","","null","","","","41","","","","","","","","","","","","","","","","","2","","","","","","","","","","106.5","3","","","","","","","","","","","","","",""
"46","","deliberation","html-keyboard-response","205","256356","0.0-2.0-86.0-0.0","12","11","0","0","","","","","50","","","","42","1","59","22","objects","outdoor_scenes","50","50","Stimuli/Experimental_stims/objects/ronaldo-arthur-vidal-Cdz_lvnl37k-unsplash.jpg","Stimuli/Experimental_stims/outdoor_scenes/stephen-leonardi-gyIRjKPXupE-unsplash.jpg","0","G","0","NaN","NaN","original","1500","2","1","59","22","objects","outdoor_scenes","Stimuli/Experimental_stims/objects/ronaldo-arthur-vidal-Cdz_lvnl37k-unsplash.jpg","Stimuli/Experimental_stims/outdoor_scenes/stephen-leonardi-gyIRjKPXupE-unsplash.jpg","50","50","109.5","0.046","","","","","","","","","","","","","",""
"null","","deliberation_confirmation","html-keyboard-response","206","257314","0.0-2.0-86.0-2.0-0.0","12","11","0","0","","","","","null","","","","42","","","","","","","","","","","","","","","","","2","","","","","","","","","","109.546","0.954","","","","","","","","","","","","","",""
"null","","iti","html-keyboard-response","207","257422","0.0-2.0-86.0-4.0","12","11","0","0","","","","","null","","","","42","","","","","","","","","","","","","","","","","2","","","","","","","","","","110.5","1.5","","","","","","","","","","","","","",""
"323","","deliberation","html-keyboard-response","208","257748","0.0-2.0-88.0-0.0","12","11","0","0","","","","","50","","","","43","1","17","40","outdoor_scenes","body_parts","50","50","Stimuli/Experimental_stims/outdoor_scenes/jeff-king-bJHWJeiHfHc-unsplash.jpg","Stimuli/Experimental_stims/body_parts/klara-kulikova-TcUfF24fUMY-unsplash.jpg","0","C","0","NaN","NaN","original","2000","2","1","17","40","outdoor_scenes","body_parts","Stimuli/Experimental_stims/outdoor_scenes/jeff-king-bJHWJeiHfHc-unsplash.jpg","Stimuli/Experimental_stims/body_parts/klara-kulikova-TcUfF24fUMY-unsplash.jpg","50","50","112","0.323","","","","","","","","","","","","","",""
"null","","deliberation_confirmation","html-keyboard-response","209","258437","0.0-2.0-88.0-2.0-0.0","12","11","0","0","","","","","null","","","","43","","","","","","","","","","","","","","","","","2","","","","","","","","","","112.323","0.677","","","","","","","","","","","","","",""
"null","","iti","html-keyboard-response","210","258539","0.0-2.0-88.0-4.0","12","11","0","0","","","","","null","","","","43","","","","","","","","","","","","","","","","","2","","","","","","","","","","113","2","","","","","","","","","","","","","",""
"189","","deliberation","html-keyboard-response","211","258732","0.0-2.0-90.0-0.0","12","11","0","0","","","","","50","","","","44","1","32","48","faces","objects","50","50","Stimuli/Experimental_stims/faces/justin-chen-J7Cf1Gch49E-unsplash.jpg","Stimuli/Experimental_stims/objects/alexander-andrews-JYGnB9gTCls-unsplash.jpg","0","J","0","NaN","NaN","original","1500","2","1","32","48","faces","objects","Stimuli/Experimental_stims/faces/justin-chen-J7Cf1Gch49E-unsplash.jpg","Stimuli/Experimental_stims/objects/alexander-andrews-JYGnB9gTCls-unsplash.jpg","50","50","115","0.189","","","","","","","","","","","","","",""
"null","","deliberation_confirmation","html-keyboard-response","212","259548","0.0-2.0-90.0-2.0-0.0","12","11","0","0","","","","","null","","","","44","","","","","","","","","","","","","","","","","2","","","","","","","","","","115.189","0.811","","","","","","","","","","","","","",""
"null","","iti","html-keyboard-response","213","259661","0.0-2.0-90.0-4.0","12","11","0","0","","","","","null","","","","44","","","","","","","","","","","","","","","","","2","","","","","","","","","","116","1.5","","","","","","","","","","","","","",""
"65","","deliberation","html-keyboard-response","214","259729","0.0-2.0-92.0-0.0","12","11","0","0","","","","","50","","","","45","1","21","57","outdoor_scenes","objects","50","50","Stimuli/Experimental_stims/outdoor_scenes/sergey-pesterev-y-b_FOmJXdg-unsplash.jpg","Stimuli/Experimental_stims/objects/kuiye-chen-NuOGFo4PudE-unsplash.jpg","0","A","0","NaN","NaN","original","2000","2","1","21","57","outdoor_scenes","objects","Stimuli/Experimental_stims/outdoor_scenes/sergey-pesterev-y-b_FOmJXdg-unsplash.jpg","Stimuli/Experimental_stims/objects/kuiye-chen-NuOGFo4PudE-unsplash.jpg","50","50","117.5","0.065","","","","","","","","","","","","","",""
"null","","deliberation_confirmation","html-keyboard-response","215","260677","0.0-2.0-92.0-2.0-0.0","12","11","0","0","","","","","null","","","","45","","","","","","","","","","","","","","","","","2","","","","","","","","","","117.565","0.935","","","","","","","","","","","","","",""
"null","","iti","html-keyboard-response","216","260787","0.0-2.0-92.0-4.0","12","11","0","0","","","","","null","","","","45","","","","","","","","","","","","","","","","","2","","","","","","","","","","118.5","2","","","","","","","","","","","","","",""
"194","","deliberation","html-keyboard-response","217","260984","0.0-2.0-94.0-0.0","12","11","0","0","","","","","50","","","","46","1","55","47","objects","body_parts","50","50","Stimuli/Experimental_stims/objects/jiangxulei1990-eIzzzwtkBjU-unsplash.jpg","Stimuli/Experimental_stims/body_parts/tucker-good-36skLT5jZcc-unsplash.jpg","0","E","0","NaN","NaN","original","1000","2","1","55","47","objects","body_parts","Stimuli/Experimental_stims/objects/jiangxulei1990-eIzzzwtkBjU-unsplash.jpg","Stimuli/Experimental_stims/body_parts/tucker-good-36skLT5jZcc-unsplash.jpg","50","50","120.5","0.194","","","","","","","","","","","","","",""
"null","","deliberation_confirmation","html-keyboard-response","218","261795","0.0-2.0-94.0-2.0-0.0","12","11","0","0","","","","","null","","","","46","","","","","","","","","","","","","","","","","2","","","","","","","","","","120.694","0.806","","","","","","","","","","","","","",""
"null","","iti","html-keyboard-response","219","261911","0.0-2.0-94.0-4.0","12","11","0","0","","","","","null","","","","46","","","","","","","","","","","","","","","","","2","","","","","","","","","","121.5","1","","","","","","","","","","","","","",""
"295","","deliberation","html-keyboard-response","220","262209","0.0-2.0-96.0-0.0","12","11","0","0","","","","","50","","","","47","","","","","","","","","","0","A","0","1417","right","scramble","2000","2","1","21","57","outdoor_scenes","objects","Stimuli/Experimental_stims/scramble/outdoor_scenes/scrambled_sergey-pesterev-y-b_FOmJXdg-unsplash.jpg","Stimuli/Experimental_stims/scramble/objects/scrambled_kuiye-chen-NuOGFo4PudE-unsplash.jpg","NaN","NaN","122.5","1.417","false","1417","","","","","","","","","","","",""
"423","","scramble_instruction","html-keyboard-response","221","262634","0.0-2.0-96.0-1.0-0.0","12","11","0","0","","","","","50","","","","47","1","21","57","outdoor_scenes","objects","","","","","0","","","","","","","2","","","","","","","","","","123.917","0.423","","","0","","","","","","","","","","",""
"null","","deliberation_confirmation","html-keyboard-response","222","262638","0.0-2.0-96.0-2.0-0.0","12","11","0","0","","","","","null","","","","47","","","","","","","","","","","","","","","","","2","","","","","","","","","","124.34","-0.84","","","","","","","","","","","","","",""
"null","","iti","html-keyboard-response","223","262741","0.0-2.0-96.0-4.0","12","11","0","0","","","","","null","","","","47","","","","","","","","","","","","","","","","","2","","","","","","","","","","123.5","2","","","","","","","","","","","","","",""
"261","","deliberation","html-keyboard-response","224","263005","0.0-2.0-98.0-0.0","12","11","0","0","","","","","50","","","","48","","","","","","","","","","0","L","0","1093","right","scramble","1500","2","1","45","34","body_parts","faces","Stimuli/Experimental_stims/scramble/body_parts/scrambled_sincerely-media-7TBFwUQA6Xk-unsplash.jpg","Stimuli/Experimental_stims/scramble/faces/scrambled_olena-sergienko-0TSd6uCKTKc-unsplash.jpg","NaN","NaN","125.5","1.093","false","1093","","","","","","","","","","","",""
"326","","scramble_instruction","html-keyboard-response","225","263334","0.0-2.0-98.0-1.0-0.0","12","11","0","0","","","","","50","","","","48","1","45","34","body_parts","faces","","","","","0","","","","","","","2","","","","","","","","","","126.593","0.326","","","0","","","","","","","","","","",""
"null","","deliberation_confirmation","html-keyboard-response","226","263338","0.0-2.0-98.0-2.0-0.0","12","11","0","0","","","","","null","","","","48","","","","","","","","","","","","","","","","","2","","","","","","","","","","126.919","-0.419","","","","","","","","","","","","","",""
"null","","iti","html-keyboard-response","227","263443","0.0-2.0-98.0-4.0","12","11","0","0","","","","","null","","","","48","","","","","","","","","","","","","","","","","2","","","","","","","","","","126.5","1.5","","","","","","","","","","","","","",""
"229","","deliberation","html-keyboard-response","228","263675","0.0-2.0-100.0-0.0","12","11","0","0","","","","","50","","","","49","","","","","","","","","","0","H","0","1995","left","scramble","3000","2","1","25","14","faces","outdoor_scenes","Stimuli/Experimental_stims/scramble/faces/scrambled_aiony-haust-jmATI5Q_YgY-unsplash.jpg","Stimuli/Experimental_stims/scramble/outdoor_scenes/scrambled_bruno-van-der-kraan-qez8mNJ3ilU-unsplash.jpg","NaN","NaN","128","1.995","false","1995","","","","","","","","","","","",""
"305","","scramble_instruction","html-keyboard-response","229","263983","0.0-2.0-100.0-1.0-0.0","12","11","0","0","","","","","50","","","","49","1","25","14","faces","outdoor_scenes","","","","","0","","","","","","","2","","","","","","","","","","129.995","0.305","","","1","","","","","","","","","","",""
"null","","deliberation_confirmation","html-keyboard-response","230","263987","0.0-2.0-100.0-2.0-0.0","12","11","0","0","","","","","null","","","","49","","","","","","","","","","","","","","","","","2","","","","","","","","","","130.3","-1.3","","","","","","","","","","","","","",""
"null","","iti","html-keyboard-response","231","264101","0.0-2.0-100.0-4.0","12","11","0","0","","","","","null","","","","49","","","","","","","","","","","","","","","","","2","","","","","","","","","","129","3","","","","","","","","","","","","","",""
"225","","deliberation","html-keyboard-response","232","264328","0.0-2.0-102.0-0.0","12","11","0","0","","","","","50","","","","50","","","","","","","","","","0","D","0","1348","right","scramble","1000","2","1","58","24","objects","faces","Stimuli/Experimental_stims/scramble/objects/scrambled_mockup-graphics-PNsj6RiHAF4-unsplash.jpg","Stimuli/Experimental_stims/scramble/faces/scrambled_abstral-official-cyOKLSgkgCE-unsplash.jpg","NaN","NaN","132","1.348","false","1348","","","","","","","","","","","",""
"355","","scramble_instruction","html-keyboard-response","233","264686","0.0-2.0-102.0-1.0-0.0","12","11","0","0","","","","","50","","","","50","1","58","24","objects","faces","","","","","0","","","","","","","2","","","","","","","","","","133.348","0.355","","","0","","","","","","","","","","",""
"null","","deliberation_confirmation","html-keyboard-response","234","264689","0.0-2.0-102.0-2.0-0.0","12","11","0","0","","","","","null","","","","50","","","","","","","","","","","","","","","","","2","","","","","","","","","","133.703","-0.703","","","","","","","","","","","","","",""
"null","","iti","html-keyboard-response","235","264799","0.0-2.0-102.0-4.0","12","11","0","0","","","","","null","","","","50","","","","","","","","","","","","","","","","","2","","","","","","","","","","133","1","","","","","","","","","","","","","",""
"231","","deliberation","html-keyboard-response","236","265034","0.0-2.0-104.0-0.0","12","11","0","0","","","","","50","","","","51","","","","","","","","","","0","I","0","1830","left","scramble","1000","2","1","39","18","body_parts","outdoor_scenes","Stimuli/Experimental_stims/scramble/body_parts/scrambled_jonathan-borba-hTwH8QFkPMs-unsplash.jpg","Stimuli/Experimental_stims/scramble/outdoor_scenes/scrambled_meng-ji-8BH_M-53CyA-unsplash.jpg","NaN","NaN","134","1.83","false","1830","","","","","","","","","","","",""
"363","","scramble_instruction","html-keyboard-response","237","265399","0.0-2.0-104.0-1.0-0.0","12","11","0","0","","","","","50","","","","51","1","39","18","body_parts","outdoor_scenes","","","","","0","","","","","","","2","","","","","","","","","","135.83","0.363","","","1","","","","","","","","","","",""
"null","","deliberation_confirmation","html-keyboard-response","238","265404","0.0-2.0-104.0-2.0-0.0","12","11","0","0","","","","","null","","","","51","","","","","","","","","","","","","","","","","2","","","","","","","","","","136.193","-1.193","","","","","","","","","","","","","",""
"null","","iti","html-keyboard-response","239","265510","0.0-2.0-104.0-4.0","12","11","0","0","","","","","null","","","","51","","","","","","","","","","","","","","","","","2","","","","","","","","","","135","1","","","","","","","","","","","","","",""
"1177","","deliberation_block_over","html-keyboard-response","240","266690","0.0-2.0-104.0-6.0-0.0","12","11","0","0","","","","","83","","","","51","","","","","","","","","","","","","","","","","","","","","","","","","","","","","","","","","","","","","","","","","",""
"1533","","start_run","html-keyboard-response","241","268225","0.0-2.0-104.0-6.0-1.0","12","11","0","0","","","","","84","","","","","","","","","","","","","","","","","","","","","","","","","","","","","","","","","","","","","","","","","","","","","",""
"298","","deliberation","html-keyboard-response","242","268527","0.0-2.0-106.0-0.0","12","11","0","0","","","","","50","","","","52","1","39","18","body_parts","outdoor_scenes","50","50","Stimuli/Experimental_stims/body_parts/jonathan-borba-hTwH8QFkPMs-unsplash.jpg","Stimuli/Experimental_stims/outdoor_scenes/meng-ji-8BH_M-53CyA-unsplash.jpg","0","I","0","NaN","NaN","original","1000","3","2","39","18","body_parts","outdoor_scenes","Stimuli/Experimental_stims/body_parts/jonathan-borba-hTwH8QFkPMs-unsplash.jpg","Stimuli/Experimental_stims/outdoor_scenes/meng-ji-8BH_M-53CyA-unsplash.jpg","50","50","0","0.298","","","","","","","","","","","","","",""
"null","","deliberation_confirmation","html-keyboard-response","243","269237","0.0-2.0-106.0-2.0-0.0","12","11","0","0","","","","","null","","","","52","","","","","","","","","","","","","","","","","3","","","","","","","","","","0.298","0.702","","","","","","","","","","","","","",""
"null","","iti","html-keyboard-response","244","269345","0.0-2.0-106.0-4.0","12","11","0","0","","","","","null","","","","52","","","","","","","","","","","","","","","","","3","","","","","","","","","","1","1","","","","","","","","","","","","","",""
"9","","deliberation","html-keyboard-response","245","269357","0.0-2.0-108.0-0.0","12","11","0","0","","","","","50","","","","53","1","44","53","body_parts","objects","50","50","Stimuli/Experimental_stims/body_parts/pure-julia-9lVaya31sMk-unsplash.jpg","Stimuli/Experimental_stims/objects/insung-yoon-w2JtIQQXoRU-unsplash.jpg","0","K","0","NaN","NaN","original","1000","3","2","44","53","body_parts","objects","Stimuli/Experimental_stims/body_parts/pure-julia-9lVaya31sMk-unsplash.jpg","Stimuli/Experimental_stims/objects/insung-yoon-w2JtIQQXoRU-unsplash.jpg","50","50","2","0.009","","","","","","","","","","","","","",""
"null","","deliberation_confirmation","html-keyboard-response","246","270355","0.0-2.0-108.0-2.0-0.0","12","11","0","0","","","","","null","","","","53","","","","","","","","","","","","","","","","","3","","","","","","","","","","2.009","0.991","","","","","","","","","","","","","",""
"null","","iti","html-keyboard-response","247","270468","0.0-2.0-108.0-4.0","12","11","0","0","","","","","null","","","","53","","","","","","","","","","","","","","","","","3","","","","","","","","","","3","1","","","","","","","","","","","","","",""
"160","","deliberation","html-keyboard-response","248","270630","0.0-2.0-110.0-0.0","12","11","0","0","","","","","50","","","","54","","","","","","","","","","0","H","0","711","left","scramble","1000","3","2","25","14","faces","outdoor_scenes","Stimuli/Experimental_stims/scramble/faces/scrambled_aiony-haust-jmATI5Q_YgY-unsplash.jpg","Stimuli/Experimental_stims/scramble/outdoor_scenes/scrambled_bruno-van-der-kraan-qez8mNJ3ilU-unsplash.jpg","NaN","NaN","4","0.711","false","711","","","","","","","","","","","",""
"323","","scramble_instruction","html-keyboard-response","249","270955","0.0-2.0-110.0-1.0-0.0","12","11","0","0","","","","","50","","","","54","1","25","14","faces","outdoor_scenes","","","","","0","","","","","","","3","","","","","","","","","","4.711","0.323","","","1","","","","","","","","","","",""
"null","","deliberation_confirmation","html-keyboard-response","250","270959","0.0-2.0-110.0-2.0-0.0","12","11","0","0","","","","","null","","","","54","","","","","","","","","","","","","","","","","3","","","","","","","","","","5.034000000000001","-0.034","","","","","","","","","","","","","",""
"null","","iti","html-keyboard-response","251","271062","0.0-2.0-110.0-4.0","12","11","0","0","","","","","null","","","","54","","","","","","","","","","","","","","","","","3","","","","","","","","","","5.000000000000001","1","","","","","","","","","","","","","",""
"251","","deliberation","html-keyboard-response","252","271316","0.0-2.0-112.0-0.0","12","11","0","0","","","","","50","","","","55","1","55","47","objects","body_parts","50","50","Stimuli/Experimental_stims/objects/jiangxulei1990-eIzzzwtkBjU-unsplash.jpg","Stimuli/Experimental_stims/body_parts/tucker-good-36skLT5jZcc-unsplash.jpg","0","E","0","NaN","NaN","original","1000","3","2","55","47","objects","body_parts","Stimuli/Experimental_stims/objects/jiangxulei1990-eIzzzwtkBjU-unsplash.jpg","Stimuli/Experimental_stims/body_parts/tucker-good-36skLT5jZcc-unsplash.jpg","50","50","6.000000000000001","0.251","","","","","","","","","","","","","",""
"null","","deliberation_confirmation","html-keyboard-response","253","272077","0.0-2.0-112.0-2.0-0.0","12","11","0","0","","","","","null","","","","55","","","","","","","","","","","","","","","","","3","","","","","","","","","","6.251000000000001","0.749","","","","","","","","","","","","","",""
"null","","iti","html-keyboard-response","254","272186","0.0-2.0-112.0-4.0","12","11","0","0","","","","","null","","","","55","","","","","","","","","","","","","","","","","3","","","","","","","","","","7.000000000000001","1","","","","","","","","","","","","","",""
"40","","deliberation","html-keyboard-response","255","272228","0.0-2.0-114.0-0.0","12","11","0","0","","","","","50","","","","56","1","45","34","body_parts","faces","50","50","Stimuli/Experimental_stims/body_parts/sincerely-media-7TBFwUQA6Xk-unsplash.jpg","Stimuli/Experimental_stims/faces/olena-sergienko-0TSd6uCKTKc-unsplash.jpg","0","L","0","NaN","NaN","original","1500","3","2","45","34","body_parts","faces","Stimuli/Experimental_stims/body_parts/sincerely-media-7TBFwUQA6Xk-unsplash.jpg","Stimuli/Experimental_stims/faces/olena-sergienko-0TSd6uCKTKc-unsplash.jpg","50","50","8","0.04","","","","","","","","","","","","","",""
"null","","deliberation_confirmation","html-keyboard-response","256","273196","0.0-2.0-114.0-2.0-0.0","12","11","0","0","","","","","null","","","","56","","","","","","","","","","","","","","","","","3","","","","","","","","","","8.04","0.96","","","","","","","","","","","","","",""
"null","","iti","html-keyboard-response","257","273306","0.0-2.0-114.0-4.0","12","11","0","0","","","","","null","","","","56","","","","","","","","","","","","","","","","","3","","","","","","","","","","9","1.5","","","","","","","","","","","","","",""
"80","","deliberation","html-keyboard-response","258","273389","0.0-2.0-116.0-0.0","12","11","0","0","","","","","50","","","","57","","","","","","","","","","0","K","0","574","right","scramble","1500","3","2","44","53","body_parts","objects","Stimuli/Experimental_stims/scramble/body_parts/scrambled_pure-julia-9lVaya31sMk-unsplash.jpg","Stimuli/Experimental_stims/scramble/objects/scrambled_insung-yoon-w2JtIQQXoRU-unsplash.jpg","NaN","NaN","10.5","0.574","false","574","","","","","","","","","","","",""
"323","","scramble_instruction","html-keyboard-response","259","273715","0.0-2.0-116.0-1.0-0.0","12","11","0","0","","","","","50","","","","57","1","44","53","body_parts","objects","","","","","0","","","","","","","3","","","","","","","","","","11.074","0.323","","","0","","","","","","","","","","",""
"null","","deliberation_confirmation","html-keyboard-response","260","273827","0.0-2.0-116.0-2.0-0.0","12","11","0","0","","","","","null","","","","57","","","","","","","","","","","","","","","","","3","","","","","","","","","","11.397","0.103","","","","","","","","","","","","","",""
"null","","iti","html-keyboard-response","261","273931","0.0-2.0-116.0-4.0","12","11","0","0","","","","","null","","","","57","","","","","","","","","","","","","","","","","3","","","","","","","","","","11.5","1.5","","","","","","","","","","","","","",""
"77","","deliberation","html-keyboard-response","262","274011","0.0-2.0-118.0-0.0","12","11","0","0","","","","","50","","","","58","","","","","","","","","","0","G","0","747","left","scramble","1000","3","2","59","22","objects","outdoor_scenes","Stimuli/Experimental_stims/scramble/objects/scrambled_ronaldo-arthur-vidal-Cdz_lvnl37k-unsplash.jpg","Stimuli/Experimental_stims/scramble/outdoor_scenes/scrambled_stephen-leonardi-gyIRjKPXupE-unsplash.jpg","NaN","NaN","13","0.747","false","747","","","","","","","","","","","",""
"292","","scramble_instruction","html-keyboard-response","263","274304","0.0-2.0-118.0-1.0-0.0","12","11","0","0","","","","","50","","","","58","1","59","22","objects","outdoor_scenes","","","","","0","","","","","","","3","","","","","","","","","","13.747","0.292","","","1","","","","","","","","","","",""
"null","","deliberation_confirmation","html-keyboard-response","264","274308","0.0-2.0-118.0-2.0-0.0","12","11","0","0","","","","","null","","","","58","","","","","","","","","","","","","","","","","3","","","","","","","","","","14.039","-0.039","","","","","","","","","","","","","",""
"null","","iti","html-keyboard-response","265","274411","0.0-2.0-118.0-4.0","12","11","0","0","","","","","null","","","","58","","","","","","","","","","","","","","","","","3","","","","","","","","","","14","1","","","","","","","","","","","","","",""
"168","","deliberation","html-keyboard-response","266","274582","0.0-2.0-120.0-0.0","12","11","0","0","","","","","50","","","","59","","","","","","","","","","0","J","0","1510","left","scramble","2000","3","2","32","48","faces","objects","Stimuli/Experimental_stims/scramble/faces/scrambled_justin-chen-J7Cf1Gch49E-unsplash.jpg","Stimuli/Experimental_stims/scramble/objects/scrambled_alexander-andrews-JYGnB9gTCls-unsplash.jpg","NaN","NaN","15","1.51","false","1510","","","","","","","","","","","",""
"267","","scramble_instruction","html-keyboard-response","267","274850","0.0-2.0-120.0-1.0-0.0","12","11","0","0","","","","","50","","","","59","1","32","48","faces","objects","","","","","0","","","","","","","3","","","","","","","","","","16.51","0.267","","","1","","","","","","","","","","",""
"null","","deliberation_confirmation","html-keyboard-response","268","274853","0.0-2.0-120.0-2.0-0.0","12","11","0","0","","","","","null","","","","59","","","","","","","","","","","","","","","","","3","","","","","","","","","","16.777","-0.777","","","","","","","","","","","","","",""
"null","","iti","html-keyboard-response","269","274958","0.0-2.0-120.0-4.0","12","11","0","0","","","","","null","","","","59","","","","","","","","","","","","","","","","","3","","","","","","","","","","16","2","","","","","","","","","","","","","",""
"446","","deliberation","html-keyboard-response","270","275407","0.0-2.0-122.0-0.0","12","11","0","0","","","","","50","","","","60","1","21","57","outdoor_scenes","objects","50","50","Stimuli/Experimental_stims/outdoor_scenes/sergey-pesterev-y-b_FOmJXdg-unsplash.jpg","Stimuli/Experimental_stims/objects/kuiye-chen-NuOGFo4PudE-unsplash.jpg","0","A","0","NaN","NaN","original","1500","3","2","21","57","outdoor_scenes","objects","Stimuli/Experimental_stims/outdoor_scenes/sergey-pesterev-y-b_FOmJXdg-unsplash.jpg","Stimuli/Experimental_stims/objects/kuiye-chen-NuOGFo4PudE-unsplash.jpg","50","50","18","0.446","","","","","","","","","","","","","",""
"null","","deliberation_confirmation","html-keyboard-response","271","275972","0.0-2.0-122.0-2.0-0.0","12","11","0","0","","","","","null","","","","60","","","","","","","","","","","","","","","","","3","","","","","","","","","","18.446","0.554","","","","","","","","","","","","","",""
"null","","iti","html-keyboard-response","272","276085","0.0-2.0-122.0-4.0","12","11","0","0","","","","","null","","","","60","","","","","","","","","","","","","","","","","3","","","","","","","","","","19","1.5","","","","","","","","","","","","","",""
"181","","deliberation","html-keyboard-response","273","276269","0.0-2.0-124.0-0.0","12","11","0","0","","","","","50","","","","61","1","28","36","faces","body_parts","50","50","Stimuli/Experimental_stims/faces/erik-lucatero-d2MSDujJl2g-unsplash.jpg","Stimuli/Experimental_stims/body_parts/callum-skelton-3KLMq7y46nA-unsplash.jpg","0","F","0","NaN","NaN","original","2000","3","2","28","36","faces","body_parts","Stimuli/Experimental_stims/faces/erik-lucatero-d2MSDujJl2g-unsplash.jpg","Stimuli/Experimental_stims/body_parts/callum-skelton-3KLMq7y46nA-unsplash.jpg","50","50","20.5","0.181","","","","","","","","","","","","","",""
"null","","deliberation_confirmation","html-keyboard-response","274","277102","0.0-2.0-124.0-2.0-0.0","12","11","0","0","","","","","null","","","","61","","","","","","","","","","","","","","","","","3","","","","","","","","","","20.681","0.819","","","","","","","","","","","","","",""
"null","","iti","html-keyboard-response","275","277214","0.0-2.0-124.0-4.0","12","11","0","0","","","","","null","","","","61","","","","","","","","","","","","","","","","","3","","","","","","","","","","21.5","2","","","","","","","","","","","","","",""
"212","","deliberation","html-keyboard-response","276","277429","0.0-2.0-126.0-0.0","12","11","0","0","","","","","50","","","","62","1","58","24","objects","faces","50","50","Stimuli/Experimental_stims/objects/mockup-graphics-PNsj6RiHAF4-unsplash.jpg","Stimuli/Experimental_stims/faces/abstral-official-cyOKLSgkgCE-unsplash.jpg","0","D","0","NaN","NaN","original","3500","3","2","58","24","objects","faces","Stimuli/Experimental_stims/objects/mockup-graphics-PNsj6RiHAF4-unsplash.jpg","Stimuli/Experimental_stims/faces/abstral-official-cyOKLSgkgCE-unsplash.jpg","50","50","23.5","0.212","","","","","","","","","","","","","",""
"null","","deliberation_confirmation","html-keyboard-response","277","278228","0.0-2.0-126.0-2.0-0.0","12","11","0","0","","","","","null","","","","62","","","","","","","","","","","","","","","","","3","","","","","","","","","","23.712","0.788","","","","","","","","","","","","","",""
