[{"init_locations":[{"src":"http://34.125.186.26/images/1_1.jpg","x":13,"y":76},{"src":"http://34.125.186.26/images/1_2.jpg","x":174,"y":76},{"src":"http://34.125.186.26/images/1_3.jpg","x":336,"y":76},{"src":"http://34.125.186.26/images/1_4.jpg","x":497,"y":76}],"moves":[{"src":"http://34.125.186.26/images/1_2.jpg","x":174,"y":314,"move_time":1959.7999999970198}],"final_locations":[{"final":{"src":"http://34.125.186.26/images/1_2.jpg","x":174,"y":314,"move_time":1959.7999999970198}}],"stars_time":[162.5],"end_time":[4020.7000000029802],"rt":3858.2000000029802,"trial_type":"order","trial_index":0,"time_elapsed":3859,"internal_node_id":"0.0-0.0","subject":1688451792050,"condition":"conditionB"},{"init_locations":[{"src":"http://34.125.186.26/images/1_5.jpg","x":12,"y":76},{"src":"http://34.125.186.26/images/1_6.jpg","x":174,"y":76},{"src":"http://34.125.186.26/images/1_7.jpg","x":335,"y":76},{"src":"http://34.125.186.26/images/1_8.jpg","x":496,"y":76}],"moves":[],"final_locations":[{}],"stars_time":[4021.60000000149],"end_time":[4267],"rt":245.39999999850988,"trial_type":"order","trial_index":1,"time_elapsed":4105,"internal_node_id":"0.0-1.0","subject":1688451792050,"condition":"conditionB"},{"init_locations":[{"src":"http://34.125.186.26/images/2_1.jpg","x":12,"y":76},{"src":"http://34.125.186.26/images/2_2.jpg","x":174,"y":76},{"src":"http://34.125.186.26/images/2_3.jpg","x":335,"y":76},{"src":"http://34.125.186.26/images/2_4.jpg","x":496,"y":76}],"moves":[],"final_locations":[{}],"stars_time":[4267.70000000298],"end_time":[4472.89999999851],"rt":205.19999999552965,"trial_type":"order","trial_index":2,"time_elapsed":4311,"internal_node_id":"0.0-2.0","subject":1688451792050,"condition":"conditionB"},{"init_locations":[{"src":"http://34.125.186.26/images/2_5.jpg","x":12,"y":76},{"src":"http://34.125.186.26/images/2_6.jpg","x":174,"y":76},{"src":"http://34.125.186.26/images/2_7.jpg","x":335,"y":76},{"src":"http://34.125.186.26/images/2_8.jpg","x":496,"y":76}],"moves":[],"final_locations":[{}],"stars_time":[4474],"end_time":[4684.89999999851],"rt":210.89999999850988,"trial_type":"order","trial_index":3,"time_elapsed":4523,"internal_node_id":"0.0-3.0","subject":1688451792050,"condition":"conditionB"},{"init_locations":[{"src":"http://34.125.186.26/images/3_1.jpg","x":12,"y":76},{"src":"http://34.125.186.26/images/3_2.jpg","x":174,"y":76},{"src":"http://34.125.186.26/images/3_3.jpg","x":335,"y":76},{"src":"http://34.125.186.26/images/3_4.jpg","x":496,"y":76}],"moves":[],"final_locations":[{}],"stars_time":[4685.5],"end_time":[4890.10000000149],"rt":204.60000000149012,"trial_type":"order","trial_index":4,"time_elapsed":4728,"internal_node_id":"0.0-4.0","subject":1688451792050,"condition":"conditionB"},{"init_locations":[{"src":"http://34.125.186.26/images/3_5.jpg","x":12,"y":76},{"src":"http://34.125.186.26/images/3_6.jpg","x":174,"y":76},{"src":"http://34.125.186.26/images/3_7.jpg","x":335,"y":76},{"src":"http://34.125.186.26/images/3_8.jpg","x":496,"y":76}],"moves":[],"final_locations":[{}],"stars_time":[4890.70000000298],"end_time":[5103],"rt":212.29999999701977,"trial_type":"order","trial_index":5,"time_elapsed":4941,"internal_node_id":"0.0-5.0","subject":1688451792050,"condition":"conditionB"},{"init_locations":[{"src":"http://34.125.186.26/images/4_1.jpg","x":12,"y":76},{"src":"http://34.125.186.26/images/4_2.jpg","x":174,"y":76},{"src":"http://34.125.186.26/images/4_3.jpg","x":335,"y":76},{"src":"http://34.125.186.26/images/4_4.jpg","x":496,"y":76}],"moves":[],"final_locations":[{}],"stars_time":[5103.60000000149],"end_time":[5315.70000000298],"rt":212.10000000149012,"trial_type":"order","trial_index":6,"time_elapsed":5154,"internal_node_id":"0.0-6.0","subject":1688451792050,"condition":"conditionB"},{"init_locations":[{"src":"http://34.125.186.26/images/4_5.jpg","x":12,"y":76},{"src":"http://34.125.186.26/images/4_6.jpg","x":174,"y":76},{"src":"http://34.125.186.26/images/4_7.jpg","x":335,"y":76},{"src":"http://34.125.186.26/images/4_8.jpg","x":496,"y":76}],"moves":[],"final_locations":[{}],"stars_time":[5316.5],"end_time":[5533.70000000298],"rt":217.20000000298023,"trial_type":"order","trial_index":7,"time_elapsed":5372,"internal_node_id":"0.0-7.0","subject":1688451792050,"condition":"conditionB"},{"init_locations":[{"src":"http://34.125.186.26/images/5_1.jpg","x":12,"y":76},{"src":"http://34.125.186.26/images/5_2.jpg","x":174,"y":76},{"src":"http://34.125.186.26/images/5_3.jpg","x":335,"y":76},{"src":"http://34.125.186.26/images/5_4.jpg","x":496,"y":76}],"moves":[],"final_locations":[{}],"stars_time":[5534.70000000298],"end_time":[5753.39999999851],"rt":218.69999999552965,"trial_type":"order","trial_index":8,"time_elapsed":5592,"internal_node_id":"0.0-8.0","subject":1688451792050,"condition":"conditionB"},{"init_locations":[{"src":"http://34.125.186.26/images/5_5.jpg","x":12,"y":76},{"src":"http://34.125.186.26/images/5_6.jpg","x":174,"y":76},{"src":"http://34.125.186.26/images/5_7.jpg","x":335,"y":76},{"src":"http://34.125.186.26/images/5_8.jpg","x":496,"y":76}],"moves":[],"final_locations":[{}],"stars_time":[5754.10000000149],"end_time":[5980.20000000298],"rt":226.10000000149012,"trial_type":"order","trial_index":9,"time_elapsed":5818,"internal_node_id":"0.0-9.0","subject":1688451792050,"condition":"conditionB"},{"init_locations":[{"src":"http://34.125.186.26/images/6_1.jpg","x":12,"y":76},{"src":"http://34.125.186.26/images/6_2.jpg","x":174,"y":76},{"src":"http://34.125.186.26/images/6_3.jpg","x":335,"y":76},{"src":"http://34.125.186.26/images/6_4.jpg","x":496,"y":76}],"moves":[],"final_locations":[{}],"stars_time":[5980.89999999851],"end_time":[6192.20000000298],"rt":211.30000000447035,"trial_type":"order","trial_index":10,"time_elapsed":6030,"internal_node_id":"0.0-10.0","subject":1688451792050,"condition":"conditionB"},{"init_locations":[{"src":"http://34.125.186.26/images/6_5.jpg","x":12,"y":76},{"src":"http://34.125.186.26/images/6_6.jpg","x":174,"y":76},{"src":"http://34.125.186.26/images/6_7.jpg","x":335,"y":76},{"src":"http://34.125.186.26/images/6_8.jpg","x":496,"y":76}],"moves":[],"final_locations":[{}],"stars_time":[6193],"end_time":[6411.10000000149],"rt":218.10000000149012,"trial_type":"order","trial_index":11,"time_elapsed":6249,"internal_node_id":"0.0-11.0","subject":1688451792050,"condition":"conditionB"},{"init_locations":[{"src":"http://34.125.186.26/images/7_1.jpg","x":12,"y":76},{"src":"http://34.125.186.26/images/7_2.jpg","x":174,"y":76},{"src":"http://34.125.186.26/images/7_3.jpg","x":335,"y":76},{"src":"http://34.125.186.26/images/7_4.jpg","x":496,"y":76}],"moves":[],"final_locations":[{}],"stars_time":[6411.79999999702],"end_time":[6630.10000000149],"rt":218.30000000447035,"trial_type":"order","trial_index":12,"time_elapsed":6468,"internal_node_id":"0.0-12.0","subject":1688451792050,"condition":"conditionB"},{"init_locations":[{"src":"http://34.125.186.26/images/7_5.jpg","x":12,"y":76},{"src":"http://34.125.186.26/images/7_6.jpg","x":174,"y":76},{"src":"http://34.125.186.26/images/7_7.jpg","x":335,"y":76},{"src":"http://34.125.186.26/images/7_8.jpg","x":496,"y":76}],"moves":[],"final_locations":[{}],"stars_time":[6630.60000000149],"end_time":[6856.60000000149],"rt":226,"trial_type":"order","trial_index":13,"time_elapsed":6695,"internal_node_id":"0.0-13.0","subject":1688451792050,"condition":"conditionB"},{"init_locations":[{"src":"http://34.125.186.26/images/8_1.jpg","x":12,"y":76},{"src":"http://34.125.186.26/images/8_2.jpg","x":174,"y":76},{"src":"http://34.125.186.26/images/8_3.jpg","x":335,"y":76},{"src":"http://34.125.186.26/images/8_4.jpg","x":496,"y":76}],"moves":[],"final_locations":[{}],"stars_time":[6857.10000000149],"end_time":[7076],"rt":218.89999999850988,"trial_type":"order","trial_index":14,"time_elapsed":6914,"internal_node_id":"0.0-14.0","subject":1688451792050,"condition":"conditionB"},{"init_locations":[{"src":"http://34.125.186.26/images/8_5.jpg","x":12,"y":76},{"src":"http://34.125.186.26/images/8_6.jpg","x":174,"y":76},{"src":"http://34.125.186.26/images/8_7.jpg","x":335,"y":76},{"src":"http://34.125.186.26/images/8_8.jpg","x":496,"y":76}],"moves":[],"final_locations":[{}],"stars_time":[7076.60000000149],"end_time":[7302.20000000298],"rt":225.60000000149012,"trial_type":"order","trial_index":15,"time_elapsed":7140,"internal_node_id":"0.0-15.0","subject":1688451792050,"condition":"conditionB"},{"init_locations":[{"src":"http://34.125.186.26/images/9_1.jpg","x":12,"y":76},{"src":"http://34.125.186.26/images/9_2.jpg","x":174,"y":76},{"src":"http://34.125.186.26/images/9_3.jpg","x":335,"y":76},{"src":"http://34.125.186.26/images/9_4.jpg","x":496,"y":76}],"moves":[],"final_locations":[{}],"stars_time":[7302.89999999851],"end_time":[7528.39999999851],"rt":225.5,"trial_type":"order","trial_index":16,"time_elapsed":7367,"internal_node_id":"0.0-16.0","subject":1688451792050,"condition":"conditionB"},{"init_locations":[{"src":"http://34.125.186.26/images/9_5.jpg","x":12,"y":76},{"src":"http://34.125.186.26/images/9_6.jpg","x":174,"y":76},{"src":"http://34.125.186.26/images/9_7.jpg","x":335,"y":76},{"src":"http://34.125.186.26/images/9_8.jpg","x":496,"y":76}],"moves":[],"final_locations":[{}],"stars_time":[7529.20000000298],"end_time":[7754.20000000298],"rt":225,"trial_type":"order","trial_index":17,"time_elapsed":7592,"internal_node_id":"0.0-17.0","subject":1688451792050,"condition":"conditionB"},{"rt":1605,"stimulus":"<p>How difficult was it to order the pictures?</p>","button_pressed":"4","trial_type":"html-button-response","trial_index":18,"time_elapsed":9199,"internal_node_id":"0.0-18.0","subject":1688451792050,"condition":"conditionB"}]