"success","ttype","start_time","trial_type","trial_index","time_elapsed","internal_node_id","age","PID","gender","rt","responses","view_history","repeat_instructions","key_press","response","index","stimulus_index","path","no_response","pair_id","practice","scramble_screen_time","scramble_instructed_side","stim_type","iti","block","run","left_stimulus","right_stimulus","left_category","right_category","left_path","right_path","left_rating","right_rating","onset","duration","warning","left_chosen","chosen_stimulus","unchosen_stimulus","chosen_category","unchosen_category","chosen_rating","unchosen_rating","chosen_path","unchosen_path","response_ends_trial","trial_duration","scramble_acc","chosen_left","old_pair","pair_type","old_response","pair_acc","choice_type","reward_type","stimulus_id","outcome_response","outcome_rt","outcome_acc"
"true","full_screen","d04252023hr0041","fullscreen","0","2040","0.0-0.0-0.0","11","1234","11","","","","","","","","","","","","","","","","","","","","","","","","","","","","","","","","","","","","","","","","","","","","","","","","","","","",""
"","get_id","","survey-text","1","6886","0.0-0.0-1.0","11","1234","11","4843","{""Q0"":""1234"",""Q1"":""11"",""Q2"":""11""}","","","","","","","","","","","","","","","","","","","","","","","","","","","","","","","","","","","","","","","","","","","","","","","","","",""
"","ratings_instructions","","instructions","2","8674","0.0-1.0-0.0-0.0","11","1234","11","1739","","[{""page_index"":0,""viewing_time"":1358},{""page_index"":1,""viewing_time"":381}]","","","","","","","","","","","","","","","","","","","","","","","","","","","","","","","","","","","","","","","","","","","","","","","","",""
"","rating_comprehension_check","","survey-multi-choice","3","11849","0.0-1.0-0.0-1.0","11","1234","11","3172","{""Q0"":""True"",""Q1"":""Mouse""}","","0","","","","","","","","","","","","","","","","","","","","","","","","","","","","","","","","","","","","","","","","","","","","","","","",""
"","","","html-keyboard-response","4","12742","0.0-1.0-1.0","11","1234","11","889","","","","83","","","","","","","","","","","","","","","","","","","","","","","","","","","","","","","","","","","","","","","","","","","","","","",""
"","rating","","html-slider-response","5","13925","0.0-1.0-2.0","11","1234","11","1180","","","","","50","0","43","Stimuli/Experimental_stims/body_parts/megan-menegay-UojxG_BJxnI-unsplash.jpg","","","","","","","","","","","","","","","","","","","","","","","","","","","","","","","","","","","","","","","","","","",""
"","rating","","html-slider-response","6","14086","0.0-1.0-3.0","11","1234","11","159","","","","","50","1","45","Stimuli/Experimental_stims/body_parts/sincerely-media-7TBFwUQA6Xk-unsplash.jpg","","","","","","","","","","","","","","","","","","","","","","","","","","","","","","","","","","","","","","","","","","",""
"","rating","","html-slider-response","7","14248","0.0-1.0-4.0","11","1234","11","159","","","","","50","2","59","Stimuli/Experimental_stims/objects/ronaldo-arthur-vidal-Cdz_lvnl37k-unsplash.jpg","","","","","","","","","","","","","","","","","","","","","","","","","","","","","","","","","","","","","","","","","","",""
"","rating","","html-slider-response","8","14480","0.0-1.0-5.0","11","1234","11","229","","","","","50","3","20","Stimuli/Experimental_stims/outdoor_scenes/samsommer-vddccTqwal8-unsplash.jpg","","","","","","","","","","","","","","","","","","","","","","","","","","","","","","","","","","","","","","","","","","",""
"","rating","","html-slider-response","9","14669","0.0-1.0-6.0","11","1234","11","186","","","","","50","4","29","Stimuli/Experimental_stims/faces/freddy-kearney-o-ioeoATbIM-unsplash.jpg","","","","","","","","","","","","","","","","","","","","","","","","","","","","","","","","","","","","","","","","","","",""
"","rating","","html-slider-response","10","14810","0.0-1.0-7.0","11","1234","11","139","","","","","50","5","46","Stimuli/Experimental_stims/body_parts/sincerely-media-VN6DbKajo5s-unsplash.jpg","","","","","","","","","","","","","","","","","","","","","","","","","","","","","","","","","","","","","","","","","","",""
"","rating","","html-slider-response","11","14983","0.0-1.0-8.0","11","1234","11","170","","","","","50","6","55","Stimuli/Experimental_stims/objects/jiangxulei1990-eIzzzwtkBjU-unsplash.jpg","","","","","","","","","","","","","","","","","","","","","","","","","","","","","","","","","","","","","","","","","","",""
"","rating","","html-slider-response","12","15146","0.0-1.0-9.0","11","1234","11","160","","","","","50","7","27","Stimuli/Experimental_stims/faces/daniel-rigdon-dXmXKPP2L4E-unsplash.jpg","","","","","","","","","","","","","","","","","","","","","","","","","","","","","","","","","","","","","","","","","","",""
"","rating","","html-slider-response","13","15309","0.0-1.0-10.0","11","1234","11","160","","","","","50","8","36","Stimuli/Experimental_stims/body_parts/callum-skelton-3KLMq7y46nA-unsplash.jpg","","","","","","","","","","","","","","","","","","","","","","","","","","","","","","","","","","","","","","","","","","",""
"","rating","","html-slider-response","14","15478","0.0-1.0-11.0","11","1234","11","167","","","","","50","9","34","Stimuli/Experimental_stims/faces/olena-sergienko-0TSd6uCKTKc-unsplash.jpg","","","","","","","","","","","","","","","","","","","","","","","","","","","","","","","","","","","","","","","","","","",""
"","rating","","html-slider-response","15","15664","0.0-1.0-12.0","11","1234","11","183","","","","","50","10","13","Stimuli/Experimental_stims/outdoor_scenes/ashim-d-silva-S2Q5mdOrrVc-unsplash.jpg","","","","","","","","","","","","","","","","","","","","","","","","","","","","","","","","","","","","","","","","","","",""
"","rating","","html-slider-response","16","15810","0.0-1.0-13.0","11","1234","11","143","","","","","50","11","58","Stimuli/Experimental_stims/objects/mockup-graphics-PNsj6RiHAF4-unsplash.jpg","","","","","","","","","","","","","","","","","","","","","","","","","","","","","","","","","","","","","","","","","","",""
"","rating","","html-slider-response","17","15964","0.0-1.0-14.0","11","1234","11","151","","","","","50","12","52","Stimuli/Experimental_stims/objects/fabian-blank-pElSkGRA2NU-unsplash.jpg","","","","","","","","","","","","","","","","","","","","","","","","","","","","","","","","","","","","","","","","","","",""
"","rating","","html-slider-response","18","16117","0.0-1.0-15.0","11","1234","11","150","","","","","50","13","53","Stimuli/Experimental_stims/objects/insung-yoon-w2JtIQQXoRU-unsplash.jpg","","","","","","","","","","","","","","","","","","","","","","","","","","","","","","","","","","","","","","","","","","",""
"","rating","","html-slider-response","19","16392","0.0-1.0-16.0","11","1234","11","273","","","","","50","14","47","Stimuli/Experimental_stims/body_parts/tucker-good-36skLT5jZcc-unsplash.jpg","","","","","","","","","","","","","","","","","","","","","","","","","","","","","","","","","","","","","","","","","","",""
"","rating","","html-slider-response","20","16554","0.0-1.0-17.0","11","1234","11","160","","","","","50","15","48","Stimuli/Experimental_stims/objects/alexander-andrews-JYGnB9gTCls-unsplash.jpg","","","","","","","","","","","","","","","","","","","","","","","","","","","","","","","","","","","","","","","","","","",""
"","rating","","html-slider-response","21","16724","0.0-1.0-18.0","11","1234","11","168","","","","","50","16","37","Stimuli/Experimental_stims/body_parts/engin-akyurt-Q2rfH3GW39c-unsplash.jpg","","","","","","","","","","","","","","","","","","","","","","","","","","","","","","","","","","","","","","","","","","",""
"","rating","","html-slider-response","22","16918","0.0-1.0-19.0","11","1234","11","192","","","","","50","17","23","Stimuli/Experimental_stims/outdoor_scenes/yuriy-bogdanov-W51VK3Obcj0-unsplash.jpg","","","","","","","","","","","","","","","","","","","","","","","","","","","","","","","","","","","","","","","","","","",""
"","rating","","html-slider-response","23","17080","0.0-1.0-20.0","11","1234","11","159","","","","","50","18","16","Stimuli/Experimental_stims/outdoor_scenes/jarrett-kow-1ZOyYPOBn7I-unsplash.jpg","","","","","","","","","","","","","","","","","","","","","","","","","","","","","","","","","","","","","","","","","","",""
"","rating","","html-slider-response","24","17298","0.0-1.0-21.0","11","1234","11","216","","","","","50","19","22","Stimuli/Experimental_stims/outdoor_scenes/stephen-leonardi-gyIRjKPXupE-unsplash.jpg","","","","","","","","","","","","","","","","","","","","","","","","","","","","","","","","","","","","","","","","","","",""
"","rating","","html-slider-response","25","17468","0.0-1.0-22.0","11","1234","11","166","","","","","50","20","18","Stimuli/Experimental_stims/outdoor_scenes/meng-ji-8BH_M-53CyA-unsplash.jpg","","","","","","","","","","","","","","","","","","","","","","","","","","","","","","","","","","","","","","","","","","",""
"","rating","","html-slider-response","26","17654","0.0-1.0-23.0","11","1234","11","184","","","","","50","21","41","Stimuli/Experimental_stims/body_parts/lucaxx-freire-CacZwMexYdk-unsplash.jpg","","","","","","","","","","","","","","","","","","","","","","","","","","","","","","","","","","","","","","","","","","",""
"","rating","","html-slider-response","27","17824","0.0-1.0-24.0","11","1234","11","168","","","","","50","22","38","Stimuli/Experimental_stims/body_parts/engin-akyurt-x_3gyC42btc-unsplash.jpg","","","","","","","","","","","","","","","","","","","","","","","","","","","","","","","","","","","","","","","","","","",""
"","rating","","html-slider-response","28","18019","0.0-1.0-25.0","11","1234","11","192","","","","","50","23","44","Stimuli/Experimental_stims/body_parts/pure-julia-9lVaya31sMk-unsplash.jpg","","","","","","","","","","","","","","","","","","","","","","","","","","","","","","","","","","","","","","","","","","",""
"","rating","","html-slider-response","29","18301","0.0-1.0-26.0","11","1234","11","280","","","","","50","24","33","Stimuli/Experimental_stims/faces/leilani-angel-K84vnnzxmTQ-unsplash.jpg","","","","","","","","","","","","","","","","","","","","","","","","","","","","","","","","","","","","","","","","","","",""
"","rating","","html-slider-response","30","18488","0.0-1.0-27.0","11","1234","11","184","","","","","50","25","31","Stimuli/Experimental_stims/faces/jessica-radanavong-mrYkTuAesKE-unsplash.jpg","","","","","","","","","","","","","","","","","","","","","","","","","","","","","","","","","","","","","","","","","","",""
"","rating","","html-slider-response","31","18658","0.0-1.0-28.0","11","1234","11","167","","","","","50","26","26","Stimuli/Experimental_stims/faces/art-hauntington-jzY0KRJopEI-unsplash.jpg","","","","","","","","","","","","","","","","","","","","","","","","","","","","","","","","","","","","","","","","","","",""
"","rating","","html-slider-response","32","18836","0.0-1.0-29.0","11","1234","11","175","","","","","50","27","25","Stimuli/Experimental_stims/faces/aiony-haust-jmATI5Q_YgY-unsplash.jpg","","","","","","","","","","","","","","","","","","","","","","","","","","","","","","","","","","","","","","","","","","",""
"","rating","","html-slider-response","33","19014","0.0-1.0-30.0","11","1234","11","175","","","","","50","28","14","Stimuli/Experimental_stims/outdoor_scenes/bruno-van-der-kraan-qez8mNJ3ilU-unsplash.jpg","","","","","","","","","","","","","","","","","","","","","","","","","","","","","","","","","","","","","","","","","","",""
"","rating","","html-slider-response","34","19191","0.0-1.0-31.0","11","1234","11","175","","","","","50","29","17","Stimuli/Experimental_stims/outdoor_scenes/jeff-king-bJHWJeiHfHc-unsplash.jpg","","","","","","","","","","","","","","","","","","","","","","","","","","","","","","","","","","","","","","","","","","",""
"","rating","","html-slider-response","35","19370","0.0-1.0-32.0","11","1234","11","175","","","","","50","30","40","Stimuli/Experimental_stims/body_parts/klara-kulikova-TcUfF24fUMY-unsplash.jpg","","","","","","","","","","","","","","","","","","","","","","","","","","","","","","","","","","","","","","","","","","",""
"","rating","","html-slider-response","36","19556","0.0-1.0-33.0","11","1234","11","183","","","","","50","31","56","Stimuli/Experimental_stims/objects/jonathan-greenaway-Y4hGgeiFn3s-unsplash.jpg","","","","","","","","","","","","","","","","","","","","","","","","","","","","","","","","","","","","","","","","","","",""
"","rating","","html-slider-response","37","19742","0.0-1.0-34.0","11","1234","11","183","","","","","50","32","32","Stimuli/Experimental_stims/faces/justin-chen-J7Cf1Gch49E-unsplash.jpg","","","","","","","","","","","","","","","","","","","","","","","","","","","","","","","","","","","","","","","","","","",""
"","rating","","html-slider-response","38","19936","0.0-1.0-35.0","11","1234","11","191","","","","","50","33","30","Stimuli/Experimental_stims/faces/good-faces-xmSWVeGEnJw-unsplash.jpg","","","","","","","","","","","","","","","","","","","","","","","","","","","","","","","","","","","","","","","","","","",""
"","rating","","html-slider-response","39","20122","0.0-1.0-36.0","11","1234","11","183","","","","","50","34","57","Stimuli/Experimental_stims/objects/kuiye-chen-NuOGFo4PudE-unsplash.jpg","","","","","","","","","","","","","","","","","","","","","","","","","","","","","","","","","","","","","","","","","","",""
"","rating","","html-slider-response","40","20316","0.0-1.0-37.0","11","1234","11","192","","","","","50","35","35","Stimuli/Experimental_stims/faces/rikonavt-HQjfrvdTfak-unsplash.jpg","","","","","","","","","","","","","","","","","","","","","","","","","","","","","","","","","","","","","","","","","","",""
"","rating","","html-slider-response","41","20495","0.0-1.0-38.0","11","1234","11","176","","","","","50","36","21","Stimuli/Experimental_stims/outdoor_scenes/sergey-pesterev-y-b_FOmJXdg-unsplash.jpg","","","","","","","","","","","","","","","","","","","","","","","","","","","","","","","","","","","","","","","","","","",""
"","rating","","html-slider-response","42","20679","0.0-1.0-39.0","11","1234","11","182","","","","","50","37","28","Stimuli/Experimental_stims/faces/erik-lucatero-d2MSDujJl2g-unsplash.jpg","","","","","","","","","","","","","","","","","","","","","","","","","","","","","","","","","","","","","","","","","","",""
"","rating","","html-slider-response","43","21036","0.0-1.0-40.0","11","1234","11","355","","","","","50","38","49","Stimuli/Experimental_stims/objects/alexander-andrews-VLGWE_SumrA-unsplash.jpg","","","","","","","","","","","","","","","","","","","","","","","","","","","","","","","","","","","","","","","","","","",""
"","rating","","html-slider-response","44","21206","0.0-1.0-41.0","11","1234","11","168","","","","","50","39","50","Stimuli/Experimental_stims/objects/andrew-petrov-TVJqDat4MAw-unsplash.jpg","","","","","","","","","","","","","","","","","","","","","","","","","","","","","","","","","","","","","","","","","","",""
"","rating","","html-slider-response","45","21400","0.0-1.0-42.0","11","1234","11","191","","","","","50","40","51","Stimuli/Experimental_stims/objects/art-lasovsky-8XddFc6NkBY-unsplash.jpg","","","","","","","","","","","","","","","","","","","","","","","","","","","","","","","","","","","","","","","","","","",""
"","rating","","html-slider-response","46","21594","0.0-1.0-43.0","11","1234","11","191","","","","","50","41","39","Stimuli/Experimental_stims/body_parts/jonathan-borba-hTwH8QFkPMs-unsplash.jpg","","","","","","","","","","","","","","","","","","","","","","","","","","","","","","","","","","","","","","","","","","",""
"","rating","","html-slider-response","47","21773","0.0-1.0-44.0","11","1234","11","176","","","","","50","42","12","Stimuli/Experimental_stims/outdoor_scenes/aleksandra-boguslawska-MS7KD9Ti7FQ-unsplash.jpg","","","","","","","","","","","","","","","","","","","","","","","","","","","","","","","","","","","","","","","","","","",""
"","rating","","html-slider-response","48","21975","0.0-1.0-45.0","11","1234","11","199","","","","","50","43","24","Stimuli/Experimental_stims/faces/abstral-official-cyOKLSgkgCE-unsplash.jpg","","","","","","","","","","","","","","","","","","","","","","","","","","","","","","","","","","","","","","","","","","",""
"","rating","","html-slider-response","49","22161","0.0-1.0-46.0","11","1234","11","184","","","","","50","44","15","Stimuli/Experimental_stims/outdoor_scenes/henry-be-NLF6hTe4PAg-unsplash.jpg","","","","","","","","","","","","","","","","","","","","","","","","","","","","","","","","","","","","","","","","","","",""
"","rating","","html-slider-response","50","22347","0.0-1.0-47.0","11","1234","11","184","","","","","50","45","42","Stimuli/Experimental_stims/body_parts/lucrezia-carnelos-kn6QrWtnAtY-unsplash.jpg","","","","","","","","","","","","","","","","","","","","","","","","","","","","","","","","","","","","","","","","","","",""
"","rating","","html-slider-response","51","22541","0.0-1.0-48.0","11","1234","11","190","","","","","50","46","54","Stimuli/Experimental_stims/objects/jess-bailey-nOeVi8DsN8U-unsplash.jpg","","","","","","","","","","","","","","","","","","","","","","","","","","","","","","","","","","","","","","","","","","",""
"","rating","","html-slider-response","52","22736","0.0-1.0-49.0","11","1234","11","192","","","","","50","47","19","Stimuli/Experimental_stims/outdoor_scenes/petr-vysohlid-9fqwGqGLUxc-unsplash.jpg","","","","","","","","","","","","","","","","","","","","","","","","","","","","","","","","","","","","","","","","","","",""
"","deliberation_instructions","","instructions","53","26668","0.0-2.0-0.0-0.0","11","1234","11","3895","","[{""page_index"":0,""viewing_time"":1386},{""page_index"":1,""viewing_time"":202},{""page_index"":2,""viewing_time"":494},{""page_index"":3,""viewing_time"":599},{""page_index"":4,""viewing_time"":1213}]","","","","","","","","","","","","","","","","","","","","","","","","","","","","","","","","","","","","","","","","","","","","","","","","",""
"","deliberation_comprehension_check","","survey-multi-choice","54","32333","0.0-2.0-0.0-1.0","11","1234","11","5660","{""Q0"":""True"",""Q1"":""True"",""Q2"":""Consider carefully and take your time (up to 10 seconds)"",""Q3"":""True"",""Q4"":""D""}","","0","","","","","","","","","","","","","","","","","","","","","","","","","","","","","","","","","","","","","","","","","","","","","","","",""
"","","","html-keyboard-response","55","34358","0.0-2.0-1.0","11","1234","11","2021","","","","83","","","","","","","","","","","","","","","","","","","","","","","","","","","","","","","","","","","","","","","","","","","","","","",""
"","deliberation","","html-keyboard-response","56","35366","0.0-2.0-2.0-0.0","11","1234","11","null","","","","null","","0","","","1","prac1","1","NaN","NaN","original","1500","0","0","NA","NA","NaN","NaN","Stimuli/Practice_stims/Deliberation/anthony-delanoix-Q0-fOL2nqZc-unsplash.jpg","Stimuli/Practice_stims/Deliberation/becca-tapert-sY5RjMB1KkE-unsplash.jpg","NA","NA","0","1","","","","","","","","","","","","","","","","","","","","","","","",""
"","deliberation_no_response","","html-keyboard-response","57","35870","0.0-2.0-2.0-3.0-0.0","11","1234","11","null","","","","null","","0","","","1","","","","","","","0","","","","","","","","","","1","0.5","1","","","","","","","","","","","","","","","","","","","","","","",""
"","iti","","html-keyboard-response","58","35975","0.0-2.0-2.0-4.0","11","1234","11","null","","","","null","","0","","","","","","","","","","0","","","","","","","","","","1.5","1","","","","","","","","","","","","","","","","","","","","","","","",""
"","deliberation","","html-keyboard-response","59","36026","0.0-2.0-2.1-0.1","11","1234","11","47","","","","50","","0","","","0","prac1","1","NaN","NaN","original","1500","0","0","NA","NA","NaN","NaN","Stimuli/Practice_stims/Deliberation/anthony-delanoix-Q0-fOL2nqZc-unsplash.jpg","Stimuli/Practice_stims/Deliberation/becca-tapert-sY5RjMB1KkE-unsplash.jpg","NA","NA","2.5","0.047","","1","NA","NA","NaN","NaN","NA","NA","Stimuli/Practice_stims/Deliberation/anthony-delanoix-Q0-fOL2nqZc-unsplash.jpg","Stimuli/Practice_stims/Deliberation/becca-tapert-sY5RjMB1KkE-unsplash.jpg","","","","","","","","","","","","","",""
"","deliberation_confirmation","","html-keyboard-response","60","36992","0.0-2.0-2.1-2.1-0.1","11","1234","11","null","","","","null","","0","","","","","","","","","","0","","","","","","","","","","2.547","0.953","","","","","","","","","","","","","","","","","","","","","","","",""
"","iti","","html-keyboard-response","61","37107","0.0-2.0-2.1-4.1","11","1234","11","null","","","","null","","0","","","","","","","","","","0","","","","","","","","","","3.5","1","","","","","","","","","","","","","","","","","","","","","","","",""
"","deliberation","","html-keyboard-response","62","37280","0.0-2.0-4.0-0.0","11","1234","11","169","","","","50","","1","","","0","prac2","1","2559","left","scramble","2500","0","0","NA","NA","NaN","NaN","Stimuli/Practice_stims/Deliberation/scramble/scrambled_clay-banks-1KPfcPdbWFM-unsplash.jpg","Stimuli/Practice_stims/Deliberation/scramble/scrambled_melissa-keizer-sV4Pd8wq5_o-unsplash.jpg","NA","NA","4.5","2.559","","","","","","","","","","","false","2559","","","","","","","","","","","",""
"","scramble_instruction","","html-keyboard-response","63","37497","0.0-2.0-4.0-1.0-0.0","11","1234","11","215","","","","50","","1","","","0","","","","","","","0","","","","","","","","","","7.059","0.215","","1","NA","NA","NaN","NaN","","","","","","","1","","","","","","","","","","",""
"","deliberation_confirmation","","html-keyboard-response","64","37501","0.0-2.0-4.0-2.0-0.0","11","1234","11","null","","","","null","","1","","","","","","","","","","0","","","","","","","","","","7.274","-1.774","","","","","","","","","","","","","","","","","","","","","","","",""
"","iti","","html-keyboard-response","65","37610","0.0-2.0-4.0-4.0","11","1234","11","null","","","","null","","1","","","","","","","","","","0","","","","","","","","","","5.5","2.5","","","","","","","","","","","","","","","","","","","","","","","",""
"","deliberation","","html-keyboard-response","66","37725","0.0-2.0-6.0-0.0","11","1234","11","111","","","","50","","2","","","0","prac3","1","1450","right","scramble","3000","0","0","NA","NA","NaN","NaN","Stimuli/Practice_stims/Deliberation/scramble/scrambled_anthony-delanoix-Q0-fOL2nqZc-unsplash.jpg","Stimuli/Practice_stims/Deliberation/scramble/scrambled_becca-tapert-sY5RjMB1KkE-unsplash.jpg","NA","NA","8","1.45","","","","","","","","","","","false","1450","","","","","","","","","","","",""
"","scramble_instruction","","html-keyboard-response","67","37941","0.0-2.0-6.0-1.0-0.0","11","1234","11","213","","","","50","","2","","","0","","","","","","","0","","","","","","","","","","9.45","0.213","","1","NA","NA","NaN","NaN","","","","","","","0","","","","","","","","","","",""
"","deliberation_confirmation","","html-keyboard-response","68","37944","0.0-2.0-6.0-2.0-0.0","11","1234","11","null","","","","null","","2","","","","","","","","","","0","","","","","","","","","","9.662999999999998","-0.663","","","","","","","","","","","","","","","","","","","","","","","",""
"","iti","","html-keyboard-response","69","38057","0.0-2.0-6.0-4.0","11","1234","11","null","","","","null","","2","","","","","","","","","","0","","","","","","","","","","8.999999999999998","3","","","","","","","","","","","","","","","","","","","","","","","",""
"","deliberation","","html-keyboard-response","70","38162","0.0-2.0-8.0-0.0","11","1234","11","102","","","","50","","3","","","0","prac4","1","NaN","NaN","original","2000","0","0","NA","NA","NaN","NaN","Stimuli/Practice_stims/Deliberation/clay-banks-1KPfcPdbWFM-unsplash.jpg","Stimuli/Practice_stims/Deliberation/melissa-keizer-sV4Pd8wq5_o-unsplash.jpg","NA","NA","11.999999999999998","0.102","","1","NA","NA","NaN","NaN","NA","NA","Stimuli/Practice_stims/Deliberation/clay-banks-1KPfcPdbWFM-unsplash.jpg","Stimuli/Practice_stims/Deliberation/melissa-keizer-sV4Pd8wq5_o-unsplash.jpg","","","","","","","","","","","","","",""
"","deliberation_confirmation","","html-keyboard-response","71","39075","0.0-2.0-8.0-2.0-0.0","11","1234","11","null","","","","null","","3","","","","","","","","","","0","","","","","","","","","","12.101999999999999","0.898","","","","","","","","","","","","","","","","","","","","","","","",""
"","iti","","html-keyboard-response","72","39182","0.0-2.0-8.0-4.0","11","1234","11","null","","","","null","","3","","","","","","","","","","0","","","","","","","","","","12.999999999999998","2","","","","","","","","","","","","","","","","","","","","","","","",""
"","practice_over","","html-keyboard-response","73","41850","0.0-2.0-8.0-5.0-0.0","11","1234","11","2665","","","","83","","3","","","","","","","","","","","","","","","","","","","","","","","","","","","","","","","","","","","","","","","","","","","","",""
"","start_run","","html-keyboard-response","74","42907","0.0-2.0-8.0-5.0-1.0","11","1234","11","1056","","","","84","","","","","","","","","","","","","","","","","","","","","","","","","","","","","","","","","","","","","","","","","","","","","","",""
"","deliberation","","html-keyboard-response","75","43039","0.0-2.0-10.0-0.0","11","1234","11","128","","","","50","","4","","","0","D","0","NaN","NaN","original","3000","1","1","53","34","objects","faces","Stimuli/Experimental_stims/objects/insung-yoon-w2JtIQQXoRU-unsplash.jpg","Stimuli/Experimental_stims/faces/olena-sergienko-0TSd6uCKTKc-unsplash.jpg","50","50","0","0.128","","1","53","34","objects","faces","50","50","Stimuli/Experimental_stims/objects/insung-yoon-w2JtIQQXoRU-unsplash.jpg","Stimuli/Experimental_stims/faces/olena-sergienko-0TSd6uCKTKc-unsplash.jpg","","","","","","","","","","","","","",""
"","deliberation_confirmation","","html-keyboard-response","76","43922","0.0-2.0-10.0-2.0-0.0","11","1234","11","null","","","","null","","4","","","","","","","","","","1","","","","","","","","","","0.128","0.872","","","","","","","","","","","","","","","","","","","","","","","",""
"","iti","","html-keyboard-response","77","44031","0.0-2.0-10.0-4.0","11","1234","11","null","","","","null","","4","","","","","","","","","","1","","","","","","","","","","1","3","","","","","","","","","","","","","","","","","","","","","","","",""
"","deliberation","","html-keyboard-response","78","44301","0.0-2.0-12.0-0.0","11","1234","11","267","","","","50","","5","","","0","A","0","NaN","NaN","original","1000","1","1","18","50","outdoor_scenes","objects","Stimuli/Experimental_stims/outdoor_scenes/meng-ji-8BH_M-53CyA-unsplash.jpg","Stimuli/Experimental_stims/objects/andrew-petrov-TVJqDat4MAw-unsplash.jpg","50","50","4","0.267","","1","18","50","outdoor_scenes","objects","50","50","Stimuli/Experimental_stims/outdoor_scenes/meng-ji-8BH_M-53CyA-unsplash.jpg","Stimuli/Experimental_stims/objects/andrew-petrov-TVJqDat4MAw-unsplash.jpg","","","","","","","","","","","","","",""
"","deliberation_confirmation","","html-keyboard-response","79","45040","0.0-2.0-12.0-2.0-0.0","11","1234","11","null","","","","null","","5","","","","","","","","","","1","","","","","","","","","","4.267","0.733","","","","","","","","","","","","","","","","","","","","","","","",""
"","iti","","html-keyboard-response","80","45153","0.0-2.0-12.0-4.0","11","1234","11","null","","","","null","","5","","","","","","","","","","1","","","","","","","","","","5","1","","","","","","","","","","","","","","","","","","","","","","","",""
"","deliberation","","html-keyboard-response","81","45310","0.0-2.0-14.0-0.0","11","1234","11","153","","","","50","","6","","","0","H","0","NaN","NaN","original","1500","1","1","25","12","faces","outdoor_scenes","Stimuli/Experimental_stims/faces/aiony-haust-jmATI5Q_YgY-unsplash.jpg","Stimuli/Experimental_stims/outdoor_scenes/aleksandra-boguslawska-MS7KD9Ti7FQ-unsplash.jpg","50","50","6","0.153","","1","25","12","faces","outdoor_scenes","50","50","Stimuli/Experimental_stims/faces/aiony-haust-jmATI5Q_YgY-unsplash.jpg","Stimuli/Experimental_stims/outdoor_scenes/aleksandra-boguslawska-MS7KD9Ti7FQ-unsplash.jpg","","","","","","","","","","","","","",""
"","deliberation_confirmation","","html-keyboard-response","82","46167","0.0-2.0-14.0-2.0-0.0","11","1234","11","null","","","","null","","6","","","","","","","","","","1","","","","","","","","","","6.153","0.847","","","","","","","","","","","","","","","","","","","","","","","",""
"","iti","","html-keyboard-response","83","46281","0.0-2.0-14.0-4.0","11","1234","11","null","","","","null","","6","","","","","","","","","","1","","","","","","","","","","7","1.5","","","","","","","","","","","","","","","","","","","","","","","",""
"","deliberation","","html-keyboard-response","84","46557","0.0-2.0-16.0-0.0","11","1234","11","274","","","","50","","7","","","0","J","0","1953","right","scramble","1500","1","1","26","54","faces","objects","Stimuli/Experimental_stims/scramble/faces/scrambled_art-hauntington-jzY0KRJopEI-unsplash.jpg","Stimuli/Experimental_stims/scramble/objects/scrambled_jess-bailey-nOeVi8DsN8U-unsplash.jpg","NaN","NaN","8.5","1.953","","","","","","","","","","","false","1953","","","","","","","","","","","",""
"","scramble_instruction","","html-keyboard-response","85","46802","0.0-2.0-16.0-1.0-0.0","11","1234","11","243","","","","50","","7","","","0","","","","","","","1","","","","","","","","","","10.453","0.243","","1","26","54","faces","objects","","","","","","","0","","","","","","","","","","",""
"","deliberation_confirmation","","html-keyboard-response","86","46806","0.0-2.0-16.0-2.0-0.0","11","1234","11","null","","","","null","","7","","","","","","","","","","1","","","","","","","","","","10.696","-1.196","","","","","","","","","","","","","","","","","","","","","","","",""
"","iti","","html-keyboard-response","87","46913","0.0-2.0-16.0-4.0","11","1234","11","null","","","","null","","7","","","","","","","","","","1","","","","","","","","","","9.5","1.5","","","","","","","","","","","","","","","","","","","","","","","",""
"","deliberation","","html-keyboard-response","88","47025","0.0-2.0-18.0-0.0","11","1234","11","110","","","","50","","8","","","0","C","0","1984","left","scramble","1000","1","1","23","45","outdoor_scenes","body_parts","Stimuli/Experimental_stims/scramble/outdoor_scenes/scrambled_yuriy-bogdanov-W51VK3Obcj0-unsplash.jpg","Stimuli/Experimental_stims/scramble/body_parts/scrambled_sincerely-media-7TBFwUQA6Xk-unsplash.jpg","NaN","NaN","11","1.984","","","","","","","","","","","false","1984","","","","","","","","","","","",""
"","scramble_instruction","","html-keyboard-response","89","47230","0.0-2.0-18.0-1.0-0.0","11","1234","11","203","","","","50","","8","","","0","","","","","","","1","","","","","","","","","","12.984","0.203","","1","23","45","outdoor_scenes","body_parts","","","","","","","1","","","","","","","","","","",""
"","deliberation_confirmation","","html-keyboard-response","90","47234","0.0-2.0-18.0-2.0-0.0","11","1234","11","null","","","","null","","8","","","","","","","","","","1","","","","","","","","","","13.187","-1.187","","","","","","","","","","","","","","","","","","","","","","","",""
"","iti","","html-keyboard-response","91","47344","0.0-2.0-18.0-4.0","11","1234","11","null","","","","null","","8","","","","","","","","","","1","","","","","","","","","","12","1","","","","","","","","","","","","","","","","","","","","","","","",""
"","deliberation","","html-keyboard-response","92","47438","0.0-2.0-20.0-0.0","11","1234","11","91","","","","50","","9","","","0","D","0","1986","left","scramble","2000","1","1","53","34","objects","faces","Stimuli/Experimental_stims/scramble/objects/scrambled_insung-yoon-w2JtIQQXoRU-unsplash.jpg","Stimuli/Experimental_stims/scramble/faces/scrambled_olena-sergienko-0TSd6uCKTKc-unsplash.jpg","NaN","NaN","13","1.986","","","","","","","","","","","false","1986","","","","","","","","","","","",""
"","scramble_instruction","","html-keyboard-response","93","47627","0.0-2.0-20.0-1.0-0.0","11","1234","11","186","","","","50","","9","","","0","","","","","","","1","","","","","","","","","","14.986","0.186","","1","53","34","objects","faces","","","","","","","1","","","","","","","","","","",""
"","deliberation_confirmation","","html-keyboard-response","94","47630","0.0-2.0-20.0-2.0-0.0","11","1234","11","null","","","","null","","9","","","","","","","","","","1","","","","","","","","","","15.172","-1.172","","","","","","","","","","","","","","","","","","","","","","","",""
"","iti","","html-keyboard-response","95","47734","0.0-2.0-20.0-4.0","11","1234","11","null","","","","null","","9","","","","","","","","","","1","","","","","","","","","","14","2","","","","","","","","","","","","","","","","","","","","","","","",""
"","deliberation","","html-keyboard-response","96","47837","0.0-2.0-22.0-0.0","11","1234","11","101","","","","50","","10","","","0","E","0","NaN","NaN","original","1500","1","1","48","41","objects","body_parts","Stimuli/Experimental_stims/objects/alexander-andrews-JYGnB9gTCls-unsplash.jpg","Stimuli/Experimental_stims/body_parts/lucaxx-freire-CacZwMexYdk-unsplash.jpg","50","50","16","0.101","","1","48","41","objects","body_parts","50","50","Stimuli/Experimental_stims/objects/alexander-andrews-JYGnB9gTCls-unsplash.jpg","Stimuli/Experimental_stims/body_parts/lucaxx-freire-CacZwMexYdk-unsplash.jpg","","","","","","","","","","","","","",""
"","deliberation_confirmation","","html-keyboard-response","97","48743","0.0-2.0-22.0-2.0-0.0","11","1234","11","null","","","","null","","10","","","","","","","","","","1","","","","","","","","","","16.101","0.899","","","","","","","","","","","","","","","","","","","","","","","",""
"","iti","","html-keyboard-response","98","48858","0.0-2.0-22.0-4.0","11","1234","11","null","","","","null","","10","","","","","","","","","","1","","","","","","","","","","17","1.5","","","","","","","","","","","","","","","","","","","","","","","",""
"","deliberation","","html-keyboard-response","99","48866","0.0-2.0-24.0-0.0","11","1234","11","5","","","","50","","11","","","0","B","0","NaN","NaN","original","1000","1","1","22","29","outdoor_scenes","faces","Stimuli/Experimental_stims/outdoor_scenes/stephen-leonardi-gyIRjKPXupE-unsplash.jpg","Stimuli/Experimental_stims/faces/freddy-kearney-o-ioeoATbIM-unsplash.jpg","50","50","18.5","0.005","","1","22","29","outdoor_scenes","faces","50","50","Stimuli/Experimental_stims/outdoor_scenes/stephen-leonardi-gyIRjKPXupE-unsplash.jpg","Stimuli/Experimental_stims/faces/freddy-kearney-o-ioeoATbIM-unsplash.jpg","","","","","","","","","","","","","",""
"","deliberation_confirmation","","html-keyboard-response","100","49871","0.0-2.0-24.0-2.0-0.0","11","1234","11","null","","","","null","","11","","","","","","","","","","1","","","","","","","","","","18.505","0.995","","","","","","","","","","","","","","","","","","","","","","","",""
"","iti","","html-keyboard-response","101","49982","0.0-2.0-24.0-4.0","11","1234","11","null","","","","null","","11","","","","","","","","","","1","","","","","","","","","","19.5","1","","","","","","","","","","","","","","","","","","","","","","","",""
"","deliberation","","html-keyboard-response","102","50178","0.0-2.0-26.0-0.0","11","1234","11","192","","","","50","","12","","","0","K","0","923","left","scramble","1500","1","1","37","55","body_parts","objects","Stimuli/Experimental_stims/scramble/body_parts/scrambled_engin-akyurt-Q2rfH3GW39c-unsplash.jpg","Stimuli/Experimental_stims/scramble/objects/scrambled_jiangxulei1990-eIzzzwtkBjU-unsplash.jpg","NaN","NaN","20.5","0.923","","","","","","","","","","","false","923","","","","","","","","","","","",""
"","scramble_instruction","","html-keyboard-response","103","50430","0.0-2.0-26.0-1.0-0.0","11","1234","11","249","","","","50","","12","","","0","","","","","","","1","","","","","","","","","","21.423000000000002","0.249","","1","37","55","body_parts","objects","","","","","","","1","","","","","","","","","","",""
"","deliberation_confirmation","","html-keyboard-response","104","50434","0.0-2.0-26.0-2.0-0.0","11","1234","11","null","","","","null","","12","","","","","","","","","","1","","","","","","","","","","21.672","-0.172","","","","","","","","","","","","","","","","","","","","","","","",""
"","iti","","html-keyboard-response","105","50537","0.0-2.0-26.0-4.0","11","1234","11","null","","","","null","","12","","","","","","","","","","1","","","","","","","","","","21.5","1.5","","","","","","","","","","","","","","","","","","","","","","","",""
"","deliberation","","html-keyboard-response","106","50681","0.0-2.0-28.0-0.0","11","1234","11","141","","","","50","","13","","","0","G","0","NaN","NaN","original","2000","1","1","58","17","objects","outdoor_scenes","Stimuli/Experimental_stims/objects/mockup-graphics-PNsj6RiHAF4-unsplash.jpg","Stimuli/Experimental_stims/outdoor_scenes/jeff-king-bJHWJeiHfHc-unsplash.jpg","50","50","23","0.141","","1","58","17","objects","outdoor_scenes","50","50","Stimuli/Experimental_stims/objects/mockup-graphics-PNsj6RiHAF4-unsplash.jpg","Stimuli/Experimental_stims/outdoor_scenes/jeff-king-bJHWJeiHfHc-unsplash.jpg","","","","","","","","","","","","","",""
"","deliberation_confirmation","","html-keyboard-response","107","51548","0.0-2.0-28.0-2.0-0.0","11","1234","11","null","","","","null","","13","","","","","","","","","","1","","","","","","","","","","23.141","0.859","","","","","","","","","","","","","","","","","","","","","","","",""
"","iti","","html-keyboard-response","108","51658","0.0-2.0-28.0-4.0","11","1234","11","null","","","","null","","13","","","","","","","","","","1","","","","","","","","","","24","2","","","","","","","","","","","","","","","","","","","","","","","",""
"","deliberation","","html-keyboard-response","109","51683","0.0-2.0-30.0-0.0","11","1234","11","23","","","","50","","14","","","0","A","0","1593","right","scramble","3500","1","1","18","50","outdoor_scenes","objects","Stimuli/Experimental_stims/scramble/outdoor_scenes/scrambled_meng-ji-8BH_M-53CyA-unsplash.jpg","Stimuli/Experimental_stims/scramble/objects/scrambled_andrew-petrov-TVJqDat4MAw-unsplash.jpg","NaN","NaN","26","1.593","","","","","","","","","","","false","1593","","","","","","","","","","","",""
"","scramble_instruction","","html-keyboard-response","110","51979","0.0-2.0-30.0-1.0-0.0","11","1234","11","293","","","","50","","14","","","0","","","","","","","1","","","","","","","","","","27.593","0.293","","1","18","50","outdoor_scenes","objects","","","","","","","0","","","","","","","","","","",""
"","deliberation_confirmation","","html-keyboard-response","111","51982","0.0-2.0-30.0-2.0-0.0","11","1234","11","null","","","","null","","14","","","","","","","","","","1","","","","","","","","","","27.886","-0.886","","","","","","","","","","","","","","","","","","","","","","","",""
"","iti","","html-keyboard-response","112","52088","0.0-2.0-30.0-4.0","11","1234","11","null","","","","null","","14","","","","","","","","","","1","","","","","","","","","","27","3.5","","","","","","","","","","","","","","","","","","","","","","","",""
"","deliberation","","html-keyboard-response","113","52235","0.0-2.0-32.0-0.0","11","1234","11","144","","","","50","","15","","","0","I","0","1558","right","scramble","1500","1","1","40","15","body_parts","outdoor_scenes","Stimuli/Experimental_stims/scramble/body_parts/scrambled_klara-kulikova-TcUfF24fUMY-unsplash.jpg","Stimuli/Experimental_stims/scramble/outdoor_scenes/scrambled_henry-be-NLF6hTe4PAg-unsplash.jpg","NaN","NaN","30.5","1.558","","","","","","","","","","","false","1558","","","","","","","","","","","",""
"","scramble_instruction","","html-keyboard-response","114","52473","0.0-2.0-32.0-1.0-0.0","11","1234","11","235","","","","50","","15","","","0","","","","","","","1","","","","","","","","","","32.058","0.235","","1","40","15","body_parts","outdoor_scenes","","","","","","","0","","","","","","","","","","",""
"","deliberation_confirmation","","html-keyboard-response","115","52477","0.0-2.0-32.0-2.0-0.0","11","1234","11","null","","","","null","","15","","","","","","","","","","1","","","","","","","","","","32.293","-0.793","","","","","","","","","","","","","","","","","","","","","","","",""
"","iti","","html-keyboard-response","116","52581","0.0-2.0-32.0-4.0","11","1234","11","null","","","","null","","15","","","","","","","","","","1","","","","","","","","","","31.5","1.5","","","","","","","","","","","","","","","","","","","","","","","",""
"","deliberation","","html-keyboard-response","117","52764","0.0-2.0-34.0-0.0","11","1234","11","179","","","","50","","16","","","0","F","0","NaN","NaN","original","3000","1","1","30","36","faces","body_parts","Stimuli/Experimental_stims/faces/good-faces-xmSWVeGEnJw-unsplash.jpg","Stimuli/Experimental_stims/body_parts/callum-skelton-3KLMq7y46nA-unsplash.jpg","50","50","33","0.179","","1","30","36","faces","body_parts","50","50","Stimuli/Experimental_stims/faces/good-faces-xmSWVeGEnJw-unsplash.jpg","Stimuli/Experimental_stims/body_parts/callum-skelton-3KLMq7y46nA-unsplash.jpg","","","","","","","","","","","","","",""
"","deliberation_confirmation","","html-keyboard-response","118","53591","0.0-2.0-34.0-2.0-0.0","11","1234","11","null","","","","null","","16","","","","","","","","","","1","","","","","","","","","","33.179","0.821","","","","","","","","","","","","","","","","","","","","","","","",""
"","iti","","html-keyboard-response","119","53703","0.0-2.0-34.0-4.0","11","1234","11","null","","","","null","","16","","","","","","","","","","1","","","","","","","","","","34","3","","","","","","","","","","","","","","","","","","","","","","","",""
"","deliberation","","html-keyboard-response","120","53946","0.0-2.0-36.0-0.0","11","1234","11","240","","","","50","","17","","","0","L","0","NaN","NaN","original","1500","1","1","39","33","body_parts","faces","Stimuli/Experimental_stims/body_parts/jonathan-borba-hTwH8QFkPMs-unsplash.jpg","Stimuli/Experimental_stims/faces/leilani-angel-K84vnnzxmTQ-unsplash.jpg","50","50","37","0.24","","1","39","33","body_parts","faces","50","50","Stimuli/Experimental_stims/body_parts/jonathan-borba-hTwH8QFkPMs-unsplash.jpg","Stimuli/Experimental_stims/faces/leilani-angel-K84vnnzxmTQ-unsplash.jpg","","","","","","","","","","","","","",""
"","deliberation_confirmation","","html-keyboard-response","121","54710","0.0-2.0-36.0-2.0-0.0","11","1234","11","null","","","","null","","17","","","","","","","","","","1","","","","","","","","","","37.24","0.76","","","","","","","","","","","","","","","","","","","","","","","",""
"","iti","","html-keyboard-response","122","54817","0.0-2.0-36.0-4.0","11","1234","11","null","","","","null","","17","","","","","","","","","","1","","","","","","","","","","38","1.5","","","","","","","","","","","","","","","","","","","","","","","",""
"","deliberation","","html-keyboard-response","123","55080","0.0-2.0-38.0-0.0","11","1234","11","261","","","","50","","18","","","0","C","0","NaN","NaN","original","3500","1","1","23","45","outdoor_scenes","body_parts","Stimuli/Experimental_stims/outdoor_scenes/yuriy-bogdanov-W51VK3Obcj0-unsplash.jpg","Stimuli/Experimental_stims/body_parts/sincerely-media-7TBFwUQA6Xk-unsplash.jpg","50","50","39.5","0.261","","1","23","45","outdoor_scenes","body_parts","50","50","Stimuli/Experimental_stims/outdoor_scenes/yuriy-bogdanov-W51VK3Obcj0-unsplash.jpg","Stimuli/Experimental_stims/body_parts/sincerely-media-7TBFwUQA6Xk-unsplash.jpg","","","","","","","","","","","","","",""
"","deliberation_confirmation","","html-keyboard-response","124","55831","0.0-2.0-38.0-2.0-0.0","11","1234","11","null","","","","null","","18","","","","","","","","","","1","","","","","","","","","","39.761","0.739","","","","","","","","","","","","","","","","","","","","","","","",""
"","iti","","html-keyboard-response","125","55943","0.0-2.0-38.0-4.0","11","1234","11","null","","","","null","","18","","","","","","","","","","1","","","","","","","","","","40.5","3.5","","","","","","","","","","","","","","","","","","","","","","","",""
"","deliberation","","html-keyboard-response","126","56105","0.0-2.0-40.0-0.0","11","1234","11","161","","","","50","","19","","","0","H","0","1503","right","scramble","1000","1","1","25","12","faces","outdoor_scenes","Stimuli/Experimental_stims/scramble/faces/scrambled_aiony-haust-jmATI5Q_YgY-unsplash.jpg","Stimuli/Experimental_stims/scramble/outdoor_scenes/scrambled_aleksandra-boguslawska-MS7KD9Ti7FQ-unsplash.jpg","NaN","NaN","44","1.503","","","","","","","","","","","false","1503","","","","","","","","","","","",""
"","scramble_instruction","","html-keyboard-response","127","56336","0.0-2.0-40.0-1.0-0.0","11","1234","11","228","","","","50","","19","","","0","","","","","","","1","","","","","","","","","","45.503","0.228","","1","25","12","faces","outdoor_scenes","","","","","","","0","","","","","","","","","","",""
"","deliberation_confirmation","","html-keyboard-response","128","56339","0.0-2.0-40.0-2.0-0.0","11","1234","11","null","","","","null","","19","","","","","","","","","","1","","","","","","","","","","45.731","-0.731","","","","","","","","","","","","","","","","","","","","","","","",""
"","iti","","html-keyboard-response","129","56450","0.0-2.0-40.0-4.0","11","1234","11","null","","","","null","","19","","","","","","","","","","1","","","","","","","","","","45","1","","","","","","","","","","","","","","","","","","","","","","","",""
"","deliberation","","html-keyboard-response","130","56615","0.0-2.0-42.0-0.0","11","1234","11","162","","","","50","","20","","","0","F","0","1781","right","scramble","2000","1","1","30","36","faces","body_parts","Stimuli/Experimental_stims/scramble/faces/scrambled_good-faces-xmSWVeGEnJw-unsplash.jpg","Stimuli/Experimental_stims/scramble/body_parts/scrambled_callum-skelton-3KLMq7y46nA-unsplash.jpg","NaN","NaN","46","1.781","","","","","","","","","","","false","1781","","","","","","","","","","","",""
"","scramble_instruction","","html-keyboard-response","131","56838","0.0-2.0-42.0-1.0-0.0","11","1234","11","220","","","","50","","20","","","0","","","","","","","1","","","","","","","","","","47.781","0.22","","1","30","36","faces","body_parts","","","","","","","0","","","","","","","","","","",""
"","deliberation_confirmation","","html-keyboard-response","132","56841","0.0-2.0-42.0-2.0-0.0","11","1234","11","null","","","","null","","20","","","","","","","","","","1","","","","","","","","","","48.001","-1.001","","","","","","","","","","","","","","","","","","","","","","","",""
"","iti","","html-keyboard-response","133","56952","0.0-2.0-42.0-4.0","11","1234","11","null","","","","null","","20","","","","","","","","","","1","","","","","","","","","","47","2","","","","","","","","","","","","","","","","","","","","","","","",""
"","deliberation","","html-keyboard-response","134","57143","0.0-2.0-44.0-0.0","11","1234","11","187","","","","50","","21","","","0","B","0","1937","right","scramble","1000","1","1","22","29","outdoor_scenes","faces","Stimuli/Experimental_stims/scramble/outdoor_scenes/scrambled_stephen-leonardi-gyIRjKPXupE-unsplash.jpg","Stimuli/Experimental_stims/scramble/faces/scrambled_freddy-kearney-o-ioeoATbIM-unsplash.jpg","NaN","NaN","49","1.937","","","","","","","","","","","false","1937","","","","","","","","","","","",""
"","scramble_instruction","","html-keyboard-response","135","57422","0.0-2.0-44.0-1.0-0.0","11","1234","11","277","","","","50","","21","","","0","","","","","","","1","","","","","","","","","","50.937","0.277","","1","22","29","outdoor_scenes","faces","","","","","","","0","","","","","","","","","","",""
"","deliberation_confirmation","","html-keyboard-response","136","57427","0.0-2.0-44.0-2.0-0.0","11","1234","11","null","","","","null","","21","","","","","","","","","","1","","","","","","","","","","51.214","-1.214","","","","","","","","","","","","","","","","","","","","","","","",""
"","iti","","html-keyboard-response","137","57530","0.0-2.0-44.0-4.0","11","1234","11","null","","","","null","","21","","","","","","","","","","1","","","","","","","","","","50","1","","","","","","","","","","","","","","","","","","","","","","","",""
"","deliberation","","html-keyboard-response","138","57701","0.0-2.0-46.0-0.0","11","1234","11","167","","","","50","","22","","","0","G","0","1254","left","scramble","3000","1","1","58","17","objects","outdoor_scenes","Stimuli/Experimental_stims/scramble/objects/scrambled_mockup-graphics-PNsj6RiHAF4-unsplash.jpg","Stimuli/Experimental_stims/scramble/outdoor_scenes/scrambled_jeff-king-bJHWJeiHfHc-unsplash.jpg","NaN","NaN","51","1.254","","","","","","","","","","","false","1254","","","","","","","","","","","",""
"","scramble_instruction","","html-keyboard-response","139","57931","0.0-2.0-46.0-1.0-0.0","11","1234","11","227","","","","50","","22","","","0","","","","","","","1","","","","","","","","","","52.254","0.227","","1","58","17","objects","outdoor_scenes","","","","","","","1","","","","","","","","","","",""
"","deliberation_confirmation","","html-keyboard-response","140","57935","0.0-2.0-46.0-2.0-0.0","11","1234","11","null","","","","null","","22","","","","","","","","","","1","","","","","","","","","","52.480999999999995","-0.481","","","","","","","","","","","","","","","","","","","","","","","",""
"","iti","","html-keyboard-response","141","58047","0.0-2.0-46.0-4.0","11","1234","11","null","","","","null","","22","","","","","","","","","","1","","","","","","","","","","51.99999999999999","3","","","","","","","","","","","","","","","","","","","","","","","",""
"","deliberation","","html-keyboard-response","142","58178","0.0-2.0-48.0-0.0","11","1234","11","128","","","","50","","23","","","0","K","0","NaN","NaN","original","2000","1","1","37","55","body_parts","objects","Stimuli/Experimental_stims/body_parts/engin-akyurt-Q2rfH3GW39c-unsplash.jpg","Stimuli/Experimental_stims/objects/jiangxulei1990-eIzzzwtkBjU-unsplash.jpg","50","50","54.99999999999999","0.128","","1","37","55","body_parts","objects","50","50","Stimuli/Experimental_stims/body_parts/engin-akyurt-Q2rfH3GW39c-unsplash.jpg","Stimuli/Experimental_stims/objects/jiangxulei1990-eIzzzwtkBjU-unsplash.jpg","","","","","","","","","","","","","",""
"","deliberation_confirmation","","html-keyboard-response","143","59059","0.0-2.0-48.0-2.0-0.0","11","1234","11","null","","","","null","","23","","","","","","","","","","1","","","","","","","","","","55.12799999999999","0.872","","","","","","","","","","","","","","","","","","","","","","","",""
"","iti","","html-keyboard-response","144","59167","0.0-2.0-48.0-4.0","11","1234","11","null","","","","null","","23","","","","","","","","","","1","","","","","","","","","","55.99999999999999","2","","","","","","","","","","","","","","","","","","","","","","","",""
"","deliberation","","html-keyboard-response","145","59316","0.0-2.0-50.0-0.0","11","1234","11","146","","","","50","","24","","","0","J","0","NaN","NaN","original","1000","1","1","26","54","faces","objects","Stimuli/Experimental_stims/faces/art-hauntington-jzY0KRJopEI-unsplash.jpg","Stimuli/Experimental_stims/objects/jess-bailey-nOeVi8DsN8U-unsplash.jpg","50","50","57.99999999999999","0.146","","1","26","54","faces","objects","50","50","Stimuli/Experimental_stims/faces/art-hauntington-jzY0KRJopEI-unsplash.jpg","Stimuli/Experimental_stims/objects/jess-bailey-nOeVi8DsN8U-unsplash.jpg","","","","","","","","","","","","","",""
"","deliberation_confirmation","","html-keyboard-response","146","60175","0.0-2.0-50.0-2.0-0.0","11","1234","11","null","","","","null","","24","","","","","","","","","","1","","","","","","","","","","58.145999999999994","0.854","","","","","","","","","","","","","","","","","","","","","","","",""
"","iti","","html-keyboard-response","147","60290","0.0-2.0-50.0-4.0","11","1234","11","null","","","","null","","24","","","","","","","","","","1","","","","","","","","","","58.99999999999999","1","","","","","","","","","","","","","","","","","","","","","","","",""
"","deliberation","","html-keyboard-response","148","60304","0.0-2.0-52.0-0.0","11","1234","11","10","","","","50","","25","","","0","E","0","1616","left","scramble","3000","1","1","48","41","objects","body_parts","Stimuli/Experimental_stims/scramble/objects/scrambled_alexander-andrews-JYGnB9gTCls-unsplash.jpg","Stimuli/Experimental_stims/scramble/body_parts/scrambled_lucaxx-freire-CacZwMexYdk-unsplash.jpg","NaN","NaN","59.99999999999999","1.616","","","","","","","","","","","false","1616","","","","","","","","","","","",""
"","scramble_instruction","","html-keyboard-response","149","60626","0.0-2.0-52.0-1.0-0.0","11","1234","11","320","","","","50","","25","","","0","","","","","","","1","","","","","","","","","","61.61599999999999","0.32","","1","48","41","objects","body_parts","","","","","","","1","","","","","","","","","","",""
"","deliberation_confirmation","","html-keyboard-response","150","60629","0.0-2.0-52.0-2.0-0.0","11","1234","11","null","","","","null","","25","","","","","","","","","","1","","","","","","","","","","61.93599999999999","-0.936","","","","","","","","","","","","","","","","","","","","","","","",""
"","iti","","html-keyboard-response","151","60736","0.0-2.0-52.0-4.0","11","1234","11","null","","","","null","","25","","","","","","","","","","1","","","","","","","","","","60.99999999999999","3","","","","","","","","","","","","","","","","","","","","","","","",""
"","deliberation","","html-keyboard-response","152","60899","0.0-2.0-54.0-0.0","11","1234","11","161","","","","50","","26","","","0","L","0","1280","left","scramble","1000","1","1","39","33","body_parts","faces","Stimuli/Experimental_stims/scramble/body_parts/scrambled_jonathan-borba-hTwH8QFkPMs-unsplash.jpg","Stimuli/Experimental_stims/scramble/faces/scrambled_leilani-angel-K84vnnzxmTQ-unsplash.jpg","NaN","NaN","63.99999999999999","1.28","","","","","","","","","","","false","1280","","","","","","","","","","","",""
"","scramble_instruction","","html-keyboard-response","153","61153","0.0-2.0-54.0-1.0-0.0","11","1234","11","252","","","","50","","26","","","0","","","","","","","1","","","","","","","","","","65.27999999999999","0.252","","1","39","33","body_parts","faces","","","","","","","1","","","","","","","","","","",""
"","deliberation_confirmation","","html-keyboard-response","154","61157","0.0-2.0-54.0-2.0-0.0","11","1234","11","null","","","","null","","26","","","","","","","","","","1","","","","","","","","","","65.53199999999998","-0.532","","","","","","","","","","","","","","","","","","","","","","","",""
"","iti","","html-keyboard-response","155","61262","0.0-2.0-54.0-4.0","11","1234","11","null","","","","null","","26","","","","","","","","","","1","","","","","","","","","","64.99999999999999","1","","","","","","","","","","","","","","","","","","","","","","","",""
"","deliberation","","html-keyboard-response","156","61422","0.0-2.0-56.0-0.0","11","1234","11","157","","","","50","","27","","","0","I","0","NaN","NaN","original","1000","1","1","40","15","body_parts","outdoor_scenes","Stimuli/Experimental_stims/body_parts/klara-kulikova-TcUfF24fUMY-unsplash.jpg","Stimuli/Experimental_stims/outdoor_scenes/henry-be-NLF6hTe4PAg-unsplash.jpg","50","50","65.99999999999999","0.157","","1","40","15","body_parts","outdoor_scenes","50","50","Stimuli/Experimental_stims/body_parts/klara-kulikova-TcUfF24fUMY-unsplash.jpg","Stimuli/Experimental_stims/outdoor_scenes/henry-be-NLF6hTe4PAg-unsplash.jpg","","","","","","","","","","","","","",""
"","deliberation_confirmation","","html-keyboard-response","157","62269","0.0-2.0-56.0-2.0-0.0","11","1234","11","null","","","","null","","27","","","","","","","","","","1","","","","","","","","","","66.15699999999998","0.843","","","","","","","","","","","","","","","","","","","","","","","",""
"","iti","","html-keyboard-response","158","62375","0.0-2.0-56.0-4.0","11","1234","11","null","","","","null","","27","","","","","","","","","","1","","","","","","","","","","66.99999999999999","1","","","","","","","","","","","","","","","","","","","","","","","",""
"","deliberation","","html-keyboard-response","159","62485","0.0-2.0-58.0-0.0","11","1234","11","107","","","","50","","28","","","0","B","0","576","left","scramble","1000","2","1","22","29","outdoor_scenes","faces","Stimuli/Experimental_stims/scramble/outdoor_scenes/scrambled_stephen-leonardi-gyIRjKPXupE-unsplash.jpg","Stimuli/Experimental_stims/scramble/faces/scrambled_freddy-kearney-o-ioeoATbIM-unsplash.jpg","NaN","NaN","67.99999999999999","0.576","","","","","","","","","","","false","576","","","","","","","","","","","",""
"","scramble_instruction","","html-keyboard-response","160","62770","0.0-2.0-58.0-1.0-0.0","11","1234","11","283","","","","50","","28","","","0","","","","","","","2","","","","","","","","","","68.57599999999998","0.283","","1","22","29","outdoor_scenes","faces","","","","","","","1","","","","","","","","","","",""
"","deliberation_confirmation","","html-keyboard-response","161","62922","0.0-2.0-58.0-2.0-0.0","11","1234","11","null","","","","null","","28","","","","","","","","","","2","","","","","","","","","","68.85899999999998","0.141","","","","","","","","","","","","","","","","","","","","","","","",""
"","iti","","html-keyboard-response","162","63031","0.0-2.0-58.0-4.0","11","1234","11","null","","","","null","","28","","","","","","","","","","2","","","","","","","","","","68.99999999999999","1","","","","","","","","","","","","","","","","","","","","","","","",""
"","deliberation","","html-keyboard-response","163","63067","0.0-2.0-60.0-0.0","11","1234","11","33","","","","50","","29","","","0","J","0","1821","right","scramble","2000","2","1","26","54","faces","objects","Stimuli/Experimental_stims/scramble/faces/scrambled_art-hauntington-jzY0KRJopEI-unsplash.jpg","Stimuli/Experimental_stims/scramble/objects/scrambled_jess-bailey-nOeVi8DsN8U-unsplash.jpg","NaN","NaN","69.99999999999999","1.821","","","","","","","","","","","false","1821","","","","","","","","","","","",""
"","scramble_instruction","","html-keyboard-response","164","63356","0.0-2.0-60.0-1.0-0.0","11","1234","11","287","","","","50","","29","","","0","","","","","","","2","","","","","","","","","","71.82099999999998","0.287","","1","26","54","faces","objects","","","","","","","0","","","","","","","","","","",""
"","deliberation_confirmation","","html-keyboard-response","165","63360","0.0-2.0-60.0-2.0-0.0","11","1234","11","null","","","","null","","29","","","","","","","","","","2","","","","","","","","","","72.10799999999999","-1.108","","","","","","","","","","","","","","","","","","","","","","","",""
"","iti","","html-keyboard-response","166","63473","0.0-2.0-60.0-4.0","11","1234","11","null","","","","null","","29","","","","","","","","","","2","","","","","","","","","","70.99999999999999","2","","","","","","","","","","","","","","","","","","","","","","","",""
"","deliberation","","html-keyboard-response","167","63643","0.0-2.0-62.0-0.0","11","1234","11","167","","","","50","","30","","","0","A","0","779","right","scramble","2000","2","1","18","50","outdoor_scenes","objects","Stimuli/Experimental_stims/scramble/outdoor_scenes/scrambled_meng-ji-8BH_M-53CyA-unsplash.jpg","Stimuli/Experimental_stims/scramble/objects/scrambled_andrew-petrov-TVJqDat4MAw-unsplash.jpg","NaN","NaN","72.99999999999999","0.779","","","","","","","","","","","false","779","","","","","","","","","","","",""
"","scramble_instruction","","html-keyboard-response","168","63961","0.0-2.0-62.0-1.0-0.0","11","1234","11","315","","","","50","","30","","","0","","","","","","","2","","","","","","","","","","73.77899999999998","0.315","","1","18","50","outdoor_scenes","objects","","","","","","","0","","","","","","","","","","",""
"","deliberation_confirmation","","html-keyboard-response","169","63964","0.0-2.0-62.0-2.0-0.0","11","1234","11","null","","","","null","","30","","","","","","","","","","2","","","","","","","","","","74.09399999999998","-0.094","","","","","","","","","","","","","","","","","","","","","","","",""
"","iti","","html-keyboard-response","170","64071","0.0-2.0-62.0-4.0","11","1234","11","null","","","","null","","30","","","","","","","","","","2","","","","","","","","","","73.99999999999999","2","","","","","","","","","","","","","","","","","","","","","","","",""
"","deliberation","","html-keyboard-response","171","64277","0.0-2.0-64.0-0.0","11","1234","11","203","","","","50","","31","","","0","F","0","NaN","NaN","original","1000","2","1","30","36","faces","body_parts","Stimuli/Experimental_stims/faces/good-faces-xmSWVeGEnJw-unsplash.jpg","Stimuli/Experimental_stims/body_parts/callum-skelton-3KLMq7y46nA-unsplash.jpg","50","50","75.99999999999999","0.203","","1","30","36","faces","body_parts","50","50","Stimuli/Experimental_stims/faces/good-faces-xmSWVeGEnJw-unsplash.jpg","Stimuli/Experimental_stims/body_parts/callum-skelton-3KLMq7y46nA-unsplash.jpg","","","","","","","","","","","","","",""
"","deliberation_confirmation","","html-keyboard-response","172","65080","0.0-2.0-64.0-2.0-0.0","11","1234","11","null","","","","null","","31","","","","","","","","","","2","","","","","","","","","","76.20299999999999","0.797","","","","","","","","","","","","","","","","","","","","","","","",""
"","iti","","html-keyboard-response","173","65190","0.0-2.0-64.0-4.0","11","1234","11","null","","","","null","","31","","","","","","","","","","2","","","","","","","","","","76.99999999999999","1","","","","","","","","","","","","","","","","","","","","","","","",""
"","deliberation","","html-keyboard-response","174","65387","0.0-2.0-66.0-0.0","11","1234","11","194","","","","50","","32","","","0","D","0","NaN","NaN","original","3000","2","1","53","34","objects","faces","Stimuli/Experimental_stims/objects/insung-yoon-w2JtIQQXoRU-unsplash.jpg","Stimuli/Experimental_stims/faces/olena-sergienko-0TSd6uCKTKc-unsplash.jpg","50","50","77.99999999999999","0.194","","1","53","34","objects","faces","50","50","Stimuli/Experimental_stims/objects/insung-yoon-w2JtIQQXoRU-unsplash.jpg","Stimuli/Experimental_stims/faces/olena-sergienko-0TSd6uCKTKc-unsplash.jpg","","","","","","","","","","","","","",""
"","deliberation_confirmation","","html-keyboard-response","175","66202","0.0-2.0-66.0-2.0-0.0","11","1234","11","null","","","","null","","32","","","","","","","","","","2","","","","","","","","","","78.19399999999999","0.806","","","","","","","","","","","","","","","","","","","","","","","",""
"","iti","","html-keyboard-response","176","66309","0.0-2.0-66.0-4.0","11","1234","11","null","","","","null","","32","","","","","","","","","","2","","","","","","","","","","78.99999999999999","3","","","","","","","","","","","","","","","","","","","","","","","",""
"","deliberation","","html-keyboard-response","177","66459","0.0-2.0-68.0-0.0","11","1234","11","148","","","","50","","33","","","0","E","0","1114","right","scramble","1000","2","1","48","41","objects","body_parts","Stimuli/Experimental_stims/scramble/objects/scrambled_alexander-andrews-JYGnB9gTCls-unsplash.jpg","Stimuli/Experimental_stims/scramble/body_parts/scrambled_lucaxx-freire-CacZwMexYdk-unsplash.jpg","NaN","NaN","81.99999999999999","1.114","","","","","","","","","","","false","1114","","","","","","","","","","","",""
"","scramble_instruction","","html-keyboard-response","178","66659","0.0-2.0-68.0-1.0-0.0","11","1234","11","198","","","","50","","33","","","0","","","","","","","2","","","","","","","","","","83.11399999999999","0.198","","1","48","41","objects","body_parts","","","","","","","0","","","","","","","","","","",""
"","deliberation_confirmation","","html-keyboard-response","179","66663","0.0-2.0-68.0-2.0-0.0","11","1234","11","null","","","","null","","33","","","","","","","","","","2","","","","","","","","","","83.31199999999998","-0.312","","","","","","","","","","","","","","","","","","","","","","","",""
"","iti","","html-keyboard-response","180","66774","0.0-2.0-68.0-4.0","11","1234","11","null","","","","null","","33","","","","","","","","","","2","","","","","","","","","","82.99999999999999","1","","","","","","","","","","","","","","","","","","","","","","","",""
"","deliberation","","html-keyboard-response","181","66855","0.0-2.0-70.0-0.0","11","1234","11","77","","","","50","","34","","","0","H","0","1954","right","scramble","3500","2","1","25","12","faces","outdoor_scenes","Stimuli/Experimental_stims/scramble/faces/scrambled_aiony-haust-jmATI5Q_YgY-unsplash.jpg","Stimuli/Experimental_stims/scramble/outdoor_scenes/scrambled_aleksandra-boguslawska-MS7KD9Ti7FQ-unsplash.jpg","NaN","NaN","83.99999999999999","1.954","","","","","","","","","","","false","1954","","","","","","","","","","","",""
"","scramble_instruction","","html-keyboard-response","182","67047","0.0-2.0-70.0-1.0-0.0","11","1234","11","189","","","","50","","34","","","0","","","","","","","2","","","","","","","","","","85.95399999999998","0.189","","1","25","12","faces","outdoor_scenes","","","","","","","0","","","","","","","","","","",""
"","deliberation_confirmation","","html-keyboard-response","183","67050","0.0-2.0-70.0-2.0-0.0","11","1234","11","null","","","","null","","34","","","","","","","","","","2","","","","","","","","","","86.14299999999997","-1.143","","","","","","","","","","","","","","","","","","","","","","","",""
"","iti","","html-keyboard-response","184","67158","0.0-2.0-70.0-4.0","11","1234","11","null","","","","null","","34","","","","","","","","","","2","","","","","","","","","","84.99999999999997","3.5","","","","","","","","","","","","","","","","","","","","","","","",""
"","deliberation","","html-keyboard-response","185","68804","0.0-2.0-72.0-0.0","11","1234","11","null","","","","null","","35","","","1","L","0","654","left","scramble","1500","2","1","39","33","body_parts","faces","Stimuli/Experimental_stims/scramble/body_parts/scrambled_jonathan-borba-hTwH8QFkPMs-unsplash.jpg","Stimuli/Experimental_stims/scramble/faces/scrambled_leilani-angel-K84vnnzxmTQ-unsplash.jpg","NaN","NaN","88.49999999999997","0.654","","","","","","","","","","","false","654","","","","","","","","","","","",""
"","scramble_instruction","","html-keyboard-response","186","70573","0.0-2.0-72.0-1.0-0.0","11","1234","11","null","","","","null","","35","","","1","","","","","","","2","","","","","","","","","","89.15399999999997","1","","","","","","","","","","","","","0","","","","","","","","","","",""
"","deliberation_no_response","","html-keyboard-response","187","71981","0.0-2.0-72.0-3.0-0.0","11","1234","11","null","","","","null","","35","","","1","","","","","","","2","","","","","","","","","","90.15399999999997","0.5","1","","","","","","","","","","","","","","","","","","","","","","",""
"","iti","","html-keyboard-response","188","72839","0.0-2.0-72.0-4.0","11","1234","11","null","","","","null","","35","","","","","","","","","","2","","","","","","","","","","90.65399999999997","1","","","","","","","","","","","","","","","","","","","","","","","",""
"","deliberation","","html-keyboard-response","189","74591","0.0-2.0-74.0-0.0","11","1234","11","null","","","","null","","36","","","1","H","0","NaN","NaN","original","3500","2","1","25","12","faces","outdoor_scenes","Stimuli/Experimental_stims/faces/aiony-haust-jmATI5Q_YgY-unsplash.jpg","Stimuli/Experimental_stims/outdoor_scenes/aleksandra-boguslawska-MS7KD9Ti7FQ-unsplash.jpg","50","50","91.65399999999997","1","","","","","","","","","","","","","","","","","","","","","","","",""
"","deliberation_no_response","","html-keyboard-response","190","76045","0.0-2.0-74.0-3.0-0.0","11","1234","11","null","","","","null","","36","","","1","","","","","","","2","","","","","","","","","","92.65399999999997","0.5","1","","","","","","","","","","","","","","","","","","","","","","",""
"","iti","","html-keyboard-response","191","76820","0.0-2.0-74.0-4.0","11","1234","11","null","","","","null","","36","","","","","","","","","","2","","","","","","","","","","93.15399999999997","3","","","","","","","","","","","","","","","","","","","","","","","",""
"","deliberation","","html-keyboard-response","192","78771","0.0-2.0-76.0-0.0","11","1234","11","null","","","","null","","37","","","1","K","0","1284","left","scramble","1500","2","1","37","55","body_parts","objects","Stimuli/Experimental_stims/scramble/body_parts/scrambled_engin-akyurt-Q2rfH3GW39c-unsplash.jpg","Stimuli/Experimental_stims/scramble/objects/scrambled_jiangxulei1990-eIzzzwtkBjU-unsplash.jpg","NaN","NaN","96.15399999999997","1.284","","","","","","","","","","","false","1284","","","","","","","","","","","",""
"","scramble_instruction","","html-keyboard-response","193","80590","0.0-2.0-76.0-1.0-0.0","11","1234","11","null","","","","null","","37","","","1","","","","","","","2","","","","","","","","","","97.43799999999997","1","","","","","","","","","","","","","0","","","","","","","","","","",""
"","deliberation_no_response","","html-keyboard-response","194","81566","0.0-2.0-76.0-3.0-0.0","11","1234","11","null","","","","null","","37","","","1","","","","","","","2","","","","","","","","","","98.43799999999997","0.5","1","","","","","","","","","","","","","","","","","","","","","","",""
"","iti","","html-keyboard-response","195","83054","0.0-2.0-76.0-4.0","11","1234","11","null","","","","null","","37","","","","","","","","","","2","","","","","","","","","","98.93799999999997","1","","","","","","","","","","","","","","","","","","","","","","","",""
"","deliberation","","html-keyboard-response","196","85316","0.0-2.0-78.0-0.0","11","1234","11","null","","","","null","","38","","","1","I","0","1660","right","scramble","3000","2","1","40","15","body_parts","outdoor_scenes","Stimuli/Experimental_stims/scramble/body_parts/scrambled_klara-kulikova-TcUfF24fUMY-unsplash.jpg","Stimuli/Experimental_stims/scramble/outdoor_scenes/scrambled_henry-be-NLF6hTe4PAg-unsplash.jpg","NaN","NaN","99.93799999999997","1.66","","","","","","","","","","","false","1660","","","","","","","","","","","",""
"","scramble_instruction","","html-keyboard-response","197","86857","0.0-2.0-78.0-1.0-0.0","11","1234","11","null","","","","null","","38","","","1","","","","","","","2","","","","","","","","","","101.59799999999997","1","","","","","","","","","","","","","0","","","","","","","","","","",""
"","deliberation_no_response","","html-keyboard-response","198","87568","0.0-2.0-78.0-3.0-0.0","11","1234","11","null","","","","null","","38","","","1","","","","","","","2","","","","","","","","","","102.59799999999997","0.5","1","","","","","","","","","","","","","","","","","","","","","","",""
"","iti","","html-keyboard-response","199","89037","0.0-2.0-78.0-4.0","11","1234","11","null","","","","null","","38","","","","","","","","","","2","","","","","","","","","","103.09799999999997","2.5","","","","","","","","","","","","","","","","","","","","","","","",""
"","deliberation","","html-keyboard-response","200","90332","0.0-2.0-80.0-0.0","11","1234","11","null","","","","null","","39","","","1","I","0","NaN","NaN","original","2000","2","1","40","15","body_parts","outdoor_scenes","Stimuli/Experimental_stims/body_parts/klara-kulikova-TcUfF24fUMY-unsplash.jpg","Stimuli/Experimental_stims/outdoor_scenes/henry-be-NLF6hTe4PAg-unsplash.jpg","50","50","105.59799999999997","1","","","","","","","","","","","","","","","","","","","","","","","",""
"","deliberation_no_response","","html-keyboard-response","201","90840","0.0-2.0-80.0-3.0-0.0","11","1234","11","null","","","","null","","39","","","1","","","","","","","2","","","","","","","","","","106.59799999999997","0.5","1","","","","","","","","","","","","","","","","","","","","","","",""
"","iti","","html-keyboard-response","202","90947","0.0-2.0-80.0-4.0","11","1234","11","null","","","","null","","39","","","","","","","","","","2","","","","","","","","","","107.09799999999997","1.5","","","","","","","","","","","","","","","","","","","","","","","",""
"","deliberation","","html-keyboard-response","203","91864","0.0-2.0-82.0-0.0","11","1234","11","914","","","","50","","40","","","0","B","0","NaN","NaN","original","2000","2","1","22","29","outdoor_scenes","faces","Stimuli/Experimental_stims/outdoor_scenes/stephen-leonardi-gyIRjKPXupE-unsplash.jpg","Stimuli/Experimental_stims/faces/freddy-kearney-o-ioeoATbIM-unsplash.jpg","50","50","108.59799999999997","0.914","","1","22","29","outdoor_scenes","faces","50","50","Stimuli/Experimental_stims/outdoor_scenes/stephen-leonardi-gyIRjKPXupE-unsplash.jpg","Stimuli/Experimental_stims/faces/freddy-kearney-o-ioeoATbIM-unsplash.jpg","","","","","","","","","","","","","",""
"","deliberation_confirmation","","html-keyboard-response","204","91959","0.0-2.0-82.0-2.0-0.0","11","1234","11","null","","","","null","","40","","","","","","","","","","2","","","","","","","","","","109.51199999999997","0.086","","","","","","","","","","","","","","","","","","","","","","","",""
"","iti","","html-keyboard-response","205","92063","0.0-2.0-82.0-4.0","11","1234","11","null","","","","null","","40","","","","","","","","","","2","","","","","","","","","","109.59799999999997","2","","","","","","","","","","","","","","","","","","","","","","","",""
"","deliberation","","html-keyboard-response","206","92083","0.0-2.0-84.0-0.0","11","1234","11","16","","","","50","","41","","","0","L","0","NaN","NaN","original","1000","2","1","39","33","body_parts","faces","Stimuli/Experimental_stims/body_parts/jonathan-borba-hTwH8QFkPMs-unsplash.jpg","Stimuli/Experimental_stims/faces/leilani-angel-K84vnnzxmTQ-unsplash.jpg","50","50","111.59799999999997","0.016","","1","39","33","body_parts","faces","50","50","Stimuli/Experimental_stims/body_parts/jonathan-borba-hTwH8QFkPMs-unsplash.jpg","Stimuli/Experimental_stims/faces/leilani-angel-K84vnnzxmTQ-unsplash.jpg","","","","","","","","","","","","","",""
"","deliberation_confirmation","","html-keyboard-response","207","93080","0.0-2.0-84.0-2.0-0.0","11","1234","11","null","","","","null","","41","","","","","","","","","","2","","","","","","","","","","111.61399999999998","0.984","","","","","","","","","","","","","","","","","","","","","","","",""
"","iti","","html-keyboard-response","208","93194","0.0-2.0-84.0-4.0","11","1234","11","null","","","","null","","41","","","","","","","","","","2","","","","","","","","","","112.59799999999997","1","","","","","","","","","","","","","","","","","","","","","","","",""
"","deliberation","","html-keyboard-response","209","93223","0.0-2.0-86.0-0.0","11","1234","11","26","","","","50","","42","","","0","J","0","NaN","NaN","original","1000","2","1","26","54","faces","objects","Stimuli/Experimental_stims/faces/art-hauntington-jzY0KRJopEI-unsplash.jpg","Stimuli/Experimental_stims/objects/jess-bailey-nOeVi8DsN8U-unsplash.jpg","50","50","113.59799999999997","0.026","","1","26","54","faces","objects","50","50","Stimuli/Experimental_stims/faces/art-hauntington-jzY0KRJopEI-unsplash.jpg","Stimuli/Experimental_stims/objects/jess-bailey-nOeVi8DsN8U-unsplash.jpg","","","","","","","","","","","","","",""
"","deliberation_confirmation","","html-keyboard-response","210","94208","0.0-2.0-86.0-2.0-0.0","11","1234","11","null","","","","null","","42","","","","","","","","","","2","","","","","","","","","","113.62399999999997","0.974","","","","","","","","","","","","","","","","","","","","","","","",""
"","iti","","html-keyboard-response","211","94318","0.0-2.0-86.0-4.0","11","1234","11","null","","","","null","","42","","","","","","","","","","2","","","","","","","","","","114.59799999999997","1","","","","","","","","","","","","","","","","","","","","","","","",""
"","deliberation","","html-keyboard-response","212","94476","0.0-2.0-88.0-0.0","11","1234","11","155","","","","50","","43","","","0","G","0","NaN","NaN","original","1500","2","1","58","17","objects","outdoor_scenes","Stimuli/Experimental_stims/objects/mockup-graphics-PNsj6RiHAF4-unsplash.jpg","Stimuli/Experimental_stims/outdoor_scenes/jeff-king-bJHWJeiHfHc-unsplash.jpg","50","50","115.59799999999997","0.155","","1","58","17","objects","outdoor_scenes","50","50","Stimuli/Experimental_stims/objects/mockup-graphics-PNsj6RiHAF4-unsplash.jpg","Stimuli/Experimental_stims/outdoor_scenes/jeff-king-bJHWJeiHfHc-unsplash.jpg","","","","","","","","","","","","","",""
"","deliberation_confirmation","","html-keyboard-response","213","95328","0.0-2.0-88.0-2.0-0.0","11","1234","11","null","","","","null","","43","","","","","","","","","","2","","","","","","","","","","115.75299999999997","0.845","","","","","","","","","","","","","","","","","","","","","","","",""
"","iti","","html-keyboard-response","214","95438","0.0-2.0-88.0-4.0","11","1234","11","null","","","","null","","43","","","","","","","","","","2","","","","","","","","","","116.59799999999997","1.5","","","","","","","","","","","","","","","","","","","","","","","",""
"","deliberation","","html-keyboard-response","215","95527","0.0-2.0-90.0-0.0","11","1234","11","86","","","","50","","44","","","0","D","0","50","left","scramble","1500","2","1","53","34","objects","faces","Stimuli/Experimental_stims/scramble/objects/scrambled_insung-yoon-w2JtIQQXoRU-unsplash.jpg","Stimuli/Experimental_stims/scramble/faces/scrambled_olena-sergienko-0TSd6uCKTKc-unsplash.jpg","NaN","NaN","118.09799999999997","0.05","","","","","","","","","","","false","50","","","","","","","","","","","",""
"","scramble_instruction","","html-keyboard-response","216","95742","0.0-2.0-90.0-1.0-0.0","11","1234","11","212","","","","50","","44","","","0","","","","","","","2","","","","","","","","","","118.14799999999997","0.212","","1","53","34","objects","faces","","","","","","","1","","","","","","","","","","",""
"","deliberation_confirmation","","html-keyboard-response","217","96487","0.0-2.0-90.0-2.0-0.0","11","1234","11","null","","","","null","","44","","","","","","","","","","2","","","","","","","","","","118.35999999999997","0.738","","","","","","","","","","","","","","","","","","","","","","","",""
"","iti","","html-keyboard-response","218","96598","0.0-2.0-90.0-4.0","11","1234","11","null","","","","null","","44","","","","","","","","","","2","","","","","","","","","","119.09799999999997","1.5","","","","","","","","","","","","","","","","","","","","","","","",""
"","deliberation","","html-keyboard-response","219","96637","0.0-2.0-92.0-0.0","11","1234","11","36","","","","50","","45","","","0","A","0","NaN","NaN","original","3000","2","1","18","50","outdoor_scenes","objects","Stimuli/Experimental_stims/outdoor_scenes/meng-ji-8BH_M-53CyA-unsplash.jpg","Stimuli/Experimental_stims/objects/andrew-petrov-TVJqDat4MAw-unsplash.jpg","50","50","120.59799999999997","0.036","","1","18","50","outdoor_scenes","objects","50","50","Stimuli/Experimental_stims/outdoor_scenes/meng-ji-8BH_M-53CyA-unsplash.jpg","Stimuli/Experimental_stims/objects/andrew-petrov-TVJqDat4MAw-unsplash.jpg","","","","","","","","","","","","","",""
"","deliberation_confirmation","","html-keyboard-response","220","97606","0.0-2.0-92.0-2.0-0.0","11","1234","11","null","","","","null","","45","","","","","","","","","","2","","","","","","","","","","120.63399999999997","0.964","","","","","","","","","","","","","","","","","","","","","","","",""
"","iti","","html-keyboard-response","221","97717","0.0-2.0-92.0-4.0","11","1234","11","null","","","","null","","45","","","","","","","","","","2","","","","","","","","","","121.59799999999997","3","","","","","","","","","","","","","","","","","","","","","","","",""
"","deliberation","","html-keyboard-response","222","97760","0.0-2.0-94.0-0.0","11","1234","11","38","","","","50","","46","","","0","G","0","1721","left","scramble","1000","2","1","58","17","objects","outdoor_scenes","Stimuli/Experimental_stims/scramble/objects/scrambled_mockup-graphics-PNsj6RiHAF4-unsplash.jpg","Stimuli/Experimental_stims/scramble/outdoor_scenes/scrambled_jeff-king-bJHWJeiHfHc-unsplash.jpg","NaN","NaN","124.59799999999997","1.721","","","","","","","","","","","false","1721","","","","","","","","","","","",""
"","scramble_instruction","","html-keyboard-response","223","98083","0.0-2.0-94.0-1.0-0.0","11","1234","11","320","","","","50","","46","","","0","","","","","","","2","","","","","","","","","","126.31899999999997","0.32","","1","58","17","objects","outdoor_scenes","","","","","","","1","","","","","","","","","","",""
"","deliberation_confirmation","","html-keyboard-response","224","98086","0.0-2.0-94.0-2.0-0.0","11","1234","11","null","","","","null","","46","","","","","","","","","","2","","","","","","","","","","126.63899999999997","-1.041","","","","","","","","","","","","","","","","","","","","","","","",""
"","iti","","html-keyboard-response","225","98190","0.0-2.0-94.0-4.0","11","1234","11","null","","","","null","","46","","","","","","","","","","2","","","","","","","","","","125.59799999999997","1","","","","","","","","","","","","","","","","","","","","","","","",""
"","deliberation","","html-keyboard-response","226","98400","0.0-2.0-96.0-0.0","11","1234","11","208","","","","50","","47","","","0","C","0","NaN","NaN","original","1500","2","1","23","45","outdoor_scenes","body_parts","Stimuli/Experimental_stims/outdoor_scenes/yuriy-bogdanov-W51VK3Obcj0-unsplash.jpg","Stimuli/Experimental_stims/body_parts/sincerely-media-7TBFwUQA6Xk-unsplash.jpg","50","50","126.59799999999997","0.208","","1","23","45","outdoor_scenes","body_parts","50","50","Stimuli/Experimental_stims/outdoor_scenes/yuriy-bogdanov-W51VK3Obcj0-unsplash.jpg","Stimuli/Experimental_stims/body_parts/sincerely-media-7TBFwUQA6Xk-unsplash.jpg","","","","","","","","","","","","","",""
"","deliberation_confirmation","","html-keyboard-response","227","99199","0.0-2.0-96.0-2.0-0.0","11","1234","11","null","","","","null","","47","","","","","","","","","","2","","","","","","","","","","126.80599999999997","0.792","","","","","","","","","","","","","","","","","","","","","","","",""
"","iti","","html-keyboard-response","228","99310","0.0-2.0-96.0-4.0","11","1234","11","null","","","","null","","47","","","","","","","","","","2","","","","","","","","","","127.59799999999997","1.5","","","","","","","","","","","","","","","","","","","","","","","",""
"","deliberation","","html-keyboard-response","229","99535","0.0-2.0-98.0-0.0","11","1234","11","223","","","","50","","48","","","0","K","0","NaN","NaN","original","1500","2","1","37","55","body_parts","objects","Stimuli/Experimental_stims/body_parts/engin-akyurt-Q2rfH3GW39c-unsplash.jpg","Stimuli/Experimental_stims/objects/jiangxulei1990-eIzzzwtkBjU-unsplash.jpg","50","50","129.09799999999996","0.223","","1","37","55","body_parts","objects","50","50","Stimuli/Experimental_stims/body_parts/engin-akyurt-Q2rfH3GW39c-unsplash.jpg","Stimuli/Experimental_stims/objects/jiangxulei1990-eIzzzwtkBjU-unsplash.jpg","","","","","","","","","","","","","",""
"","deliberation_confirmation","","html-keyboard-response","230","100322","0.0-2.0-98.0-2.0-0.0","11","1234","11","null","","","","null","","48","","","","","","","","","","2","","","","","","","","","","129.32099999999997","0.777","","","","","","","","","","","","","","","","","","","","","","","",""
"","iti","","html-keyboard-response","231","100433","0.0-2.0-98.0-4.0","11","1234","11","null","","","","null","","48","","","","","","","","","","2","","","","","","","","","","130.09799999999996","1.5","","","","","","","","","","","","","","","","","","","","","","","",""
"","deliberation","","html-keyboard-response","232","100705","0.0-2.0-100.0-0.0","11","1234","11","271","","","","50","","49","","","0","E","0","NaN","NaN","original","1000","2","1","48","41","objects","body_parts","Stimuli/Experimental_stims/objects/alexander-andrews-JYGnB9gTCls-unsplash.jpg","Stimuli/Experimental_stims/body_parts/lucaxx-freire-CacZwMexYdk-unsplash.jpg","50","50","131.59799999999996","0.271","","1","48","41","objects","body_parts","50","50","Stimuli/Experimental_stims/objects/alexander-andrews-JYGnB9gTCls-unsplash.jpg","Stimuli/Experimental_stims/body_parts/lucaxx-freire-CacZwMexYdk-unsplash.jpg","","","","","","","","","","","","","",""
"","deliberation_confirmation","","html-keyboard-response","233","101442","0.0-2.0-100.0-2.0-0.0","11","1234","11","null","","","","null","","49","","","","","","","","","","2","","","","","","","","","","131.86899999999994","0.729","","","","","","","","","","","","","","","","","","","","","","","",""
"","iti","","html-keyboard-response","234","101550","0.0-2.0-100.0-4.0","11","1234","11","null","","","","null","","49","","","","","","","","","","2","","","","","","","","","","132.59799999999996","1","","","","","","","","","","","","","","","","","","","","","","","",""
"","deliberation","","html-keyboard-response","235","101670","0.0-2.0-102.0-0.0","11","1234","11","118","","","","50","","50","","","0","F","0","1870","left","scramble","1000","2","1","30","36","faces","body_parts","Stimuli/Experimental_stims/scramble/faces/scrambled_good-faces-xmSWVeGEnJw-unsplash.jpg","Stimuli/Experimental_stims/scramble/body_parts/scrambled_callum-skelton-3KLMq7y46nA-unsplash.jpg","NaN","NaN","133.59799999999996","1.87","","","","","","","","","","","false","1870","","","","","","","","","","","",""
"","scramble_instruction","","html-keyboard-response","236","102041","0.0-2.0-102.0-1.0-0.0","11","1234","11","369","","","","50","","50","","","0","","","","","","","2","","","","","","","","","","135.46799999999996","0.369","","1","30","36","faces","body_parts","","","","","","","1","","","","","","","","","","",""
"","deliberation_confirmation","","html-keyboard-response","237","102045","0.0-2.0-102.0-2.0-0.0","11","1234","11","null","","","","null","","50","","","","","","","","","","2","","","","","","","","","","135.83699999999996","-1.239","","","","","","","","","","","","","","","","","","","","","","","",""
"","iti","","html-keyboard-response","238","102153","0.0-2.0-102.0-4.0","11","1234","11","null","","","","null","","50","","","","","","","","","","2","","","","","","","","","","134.59799999999996","1","","","","","","","","","","","","","","","","","","","","","","","",""
"","deliberation","","html-keyboard-response","239","102379","0.0-2.0-104.0-0.0","11","1234","11","224","","","","50","","51","","","0","C","0","1973","right","scramble","3000","2","1","23","45","outdoor_scenes","body_parts","Stimuli/Experimental_stims/scramble/outdoor_scenes/scrambled_yuriy-bogdanov-W51VK3Obcj0-unsplash.jpg","Stimuli/Experimental_stims/scramble/body_parts/scrambled_sincerely-media-7TBFwUQA6Xk-unsplash.jpg","NaN","NaN","135.59799999999996","1.973","","","","","","","","","","","false","1973","","","","","","","","","","","",""
"","scramble_instruction","","html-keyboard-response","240","102685","0.0-2.0-104.0-1.0-0.0","11","1234","11","304","","","","50","","51","","","0","","","","","","","2","","","","","","","","","","137.57099999999997","0.304","","1","23","45","outdoor_scenes","body_parts","","","","","","","0","","","","","","","","","","",""
"","deliberation_confirmation","","html-keyboard-response","241","102689","0.0-2.0-104.0-2.0-0.0","11","1234","11","null","","","","null","","51","","","","","","","","","","2","","","","","","","","","","137.87499999999997","-1.277","","","","","","","","","","","","","","","","","","","","","","","",""
"","iti","","html-keyboard-response","242","102797","0.0-2.0-104.0-4.0","11","1234","11","null","","","","null","","51","","","","","","","","","","2","","","","","","","","","","136.59799999999998","3","","","","","","","","","","","","","","","","","","","","","","","",""
"","deliberation_block_over","","html-keyboard-response","243","104087","0.0-2.0-104.0-6.0-0.0","11","1234","11","1288","","","","83","","51","","","","","","","","","","","","","","","","","","","","","","","","","","","","","","","","","","","","","","","","","","","","",""
"","start_run","","html-keyboard-response","244","105716","0.0-2.0-104.0-6.0-1.0","11","1234","11","1626","","","","84","","","","","","","","","","","","","","","","","","","","","","","","","","","","","","","","","","","","","","","","","","","","","","",""
"","deliberation","","html-keyboard-response","245","105831","0.0-2.0-106.0-0.0","11","1234","11","112","","","","50","","52","","","0","H","0","532","left","scramble","1500","3","2","25","12","faces","outdoor_scenes","Stimuli/Experimental_stims/scramble/faces/scrambled_aiony-haust-jmATI5Q_YgY-unsplash.jpg","Stimuli/Experimental_stims/scramble/outdoor_scenes/scrambled_aleksandra-boguslawska-MS7KD9Ti7FQ-unsplash.jpg","NaN","NaN","0","0.532","","","","","","","","","","","false","532","","","","","","","","","","","",""
"","scramble_instruction","","html-keyboard-response","246","106040","0.0-2.0-106.0-1.0-0.0","11","1234","11","207","","","","50","","52","","","0","","","","","","","3","","","","","","","","","","0.532","0.207","","1","25","12","faces","outdoor_scenes","","","","","","","1","","","","","","","","","","",""
"","deliberation_confirmation","","html-keyboard-response","247","106310","0.0-2.0-106.0-2.0-0.0","11","1234","11","null","","","","null","","52","","","","","","","","","","3","","","","","","","","","","0.739","0.261","","","","","","","","","","","","","","","","","","","","","","","",""
"","iti","","html-keyboard-response","248","106416","0.0-2.0-106.0-4.0","11","1234","11","null","","","","null","","52","","","","","","","","","","3","","","","","","","","","","1","1.5","","","","","","","","","","","","","","","","","","","","","","","",""
"","deliberation","","html-keyboard-response","249","106524","0.0-2.0-108.0-0.0","11","1234","11","106","","","","50","","53","","","0","A","0","NaN","NaN","original","1500","3","2","18","50","outdoor_scenes","objects","Stimuli/Experimental_stims/outdoor_scenes/meng-ji-8BH_M-53CyA-unsplash.jpg","Stimuli/Experimental_stims/objects/andrew-petrov-TVJqDat4MAw-unsplash.jpg","50","50","2.5","0.106","","1","18","50","outdoor_scenes","objects","50","50","Stimuli/Experimental_stims/outdoor_scenes/meng-ji-8BH_M-53CyA-unsplash.jpg","Stimuli/Experimental_stims/objects/andrew-petrov-TVJqDat4MAw-unsplash.jpg","","","","","","","","","","","","","",""
"","deliberation_confirmation","","html-keyboard-response","250","107422","0.0-2.0-108.0-2.0-0.0","11","1234","11","null","","","","null","","53","","","","","","","","","","3","","","","","","","","","","2.606","0.894","","","","","","","","","","","","","","","","","","","","","","","",""
"","iti","","html-keyboard-response","251","107526","0.0-2.0-108.0-4.0","11","1234","11","null","","","","null","","53","","","","","","","","","","3","","","","","","","","","","3.5","1.5","","","","","","","","","","","","","","","","","","","","","","","",""
"","deliberation","","html-keyboard-response","252","107646","0.0-2.0-110.0-0.0","11","1234","11","117","","","","50","","54","","","0","J","0","772","right","scramble","1000","3","2","26","54","faces","objects","Stimuli/Experimental_stims/scramble/faces/scrambled_art-hauntington-jzY0KRJopEI-unsplash.jpg","Stimuli/Experimental_stims/scramble/objects/scrambled_jess-bailey-nOeVi8DsN8U-unsplash.jpg","NaN","NaN","5","0.772","","","","","","","","","","","false","772","","","","","","","","","","","",""
"","scramble_instruction","","html-keyboard-response","253","107899","0.0-2.0-110.0-1.0-0.0","11","1234","11","252","","","","50","","54","","","0","","","","","","","3","","","","","","","","","","5.772","0.252","","1","26","54","faces","objects","","","","","","","0","","","","","","","","","","",""
"","deliberation_confirmation","","html-keyboard-response","254","107904","0.0-2.0-110.0-2.0-0.0","11","1234","11","null","","","","null","","54","","","","","","","","","","3","","","","","","","","","","6.024","-0.024","","","","","","","","","","","","","","","","","","","","","","","",""
"","iti","","html-keyboard-response","255","108008","0.0-2.0-110.0-4.0","11","1234","11","null","","","","null","","54","","","","","","","","","","3","","","","","","","","","","6","1","","","","","","","","","","","","","","","","","","","","","","","",""
"","deliberation","","html-keyboard-response","256","108208","0.0-2.0-112.0-0.0","11","1234","11","197","","","","50","","55","","","0","G","0","1051","right","scramble","1500","3","2","58","17","objects","outdoor_scenes","Stimuli/Experimental_stims/scramble/objects/scrambled_mockup-graphics-PNsj6RiHAF4-unsplash.jpg","Stimuli/Experimental_stims/scramble/outdoor_scenes/scrambled_jeff-king-bJHWJeiHfHc-unsplash.jpg","NaN","NaN","7","1.051","","","","","","","","","","","false","1051","","","","","","","","","","","",""
"","scramble_instruction","","html-keyboard-response","257","108483","0.0-2.0-112.0-1.0-0.0","11","1234","11","273","","","","50","","55","","","0","","","","","","","3","","","","","","","","","","8.051","0.273","","1","58","17","objects","outdoor_scenes","","","","","","","0","","","","","","","","","","",""
"","deliberation_confirmation","","html-keyboard-response","258","108487","0.0-2.0-112.0-2.0-0.0","11","1234","11","null","","","","null","","55","","","","","","","","","","3","","","","","","","","","","8.324","-0.324","","","","","","","","","","","","","","","","","","","","","","","",""
"","iti","","html-keyboard-response","259","108591","0.0-2.0-112.0-4.0","11","1234","11","null","","","","null","","55","","","","","","","","","","3","","","","","","","","","","8","1.5","","","","","","","","","","","","","","","","","","","","","","","",""
"","deliberation","","html-keyboard-response","260","108759","0.0-2.0-114.0-0.0","11","1234","11","165","","","","50","","56","","","0","E","0","190","right","scramble","1000","3","2","48","41","objects","body_parts","Stimuli/Experimental_stims/scramble/objects/scrambled_alexander-andrews-JYGnB9gTCls-unsplash.jpg","Stimuli/Experimental_stims/scramble/body_parts/scrambled_lucaxx-freire-CacZwMexYdk-unsplash.jpg","NaN","NaN","9.5","0.19","","","","","","","","","","","false","190","","","","","","","","","","","",""
"","scramble_instruction","","html-keyboard-response","261","109075","0.0-2.0-114.0-1.0-0.0","11","1234","11","314","","","","50","","56","","","0","","","","","","","3","","","","","","","","","","9.69","0.314","","1","48","41","objects","body_parts","","","","","","","0","","","","","","","","","","",""
"","deliberation_confirmation","","html-keyboard-response","262","109584","0.0-2.0-114.0-2.0-0.0","11","1234","11","null","","","","null","","56","","","","","","","","","","3","","","","","","","","","","10.004","0.496","","","","","","","","","","","","","","","","","","","","","","","",""
"","iti","","html-keyboard-response","263","109693","0.0-2.0-114.0-4.0","11","1234","11","null","","","","null","","56","","","","","","","","","","3","","","","","","","","","","10.5","1","","","","","","","","","","","","","","","","","","","","","","","",""
"","deliberation","","html-keyboard-response","264","109696","0.0-2.0-116.0-0.0","11","1234","11","0","","","","50","","57","","","0","D","0","NaN","NaN","original","1000","3","2","53","34","objects","faces","Stimuli/Experimental_stims/objects/insung-yoon-w2JtIQQXoRU-unsplash.jpg","Stimuli/Experimental_stims/faces/olena-sergienko-0TSd6uCKTKc-unsplash.jpg","50","50","11.5","0","","1","53","34","objects","faces","50","50","Stimuli/Experimental_stims/objects/insung-yoon-w2JtIQQXoRU-unsplash.jpg","Stimuli/Experimental_stims/faces/olena-sergienko-0TSd6uCKTKc-unsplash.jpg","","","","","","","","","","","","","",""
"","deliberation_confirmation","","html-keyboard-response","265","110705","0.0-2.0-116.0-2.0-0.0","11","1234","11","null","","","","null","","57","","","","","","","","","","3","","","","","","","","","","11.5","1","","","","","","","","","","","","","","","","","","","","","","","",""
"","iti","","html-keyboard-response","266","110816","0.0-2.0-116.0-4.0","11","1234","11","null","","","","null","","57","","","","","","","","","","3","","","","","","","","","","12.5","1","","","","","","","","","","","","","","","","","","","","","","","",""
"","deliberation","","html-keyboard-response","267","111013","0.0-2.0-118.0-0.0","11","1234","11","193","","","","50","","58","","","0","F","0","659","left","scramble","1000","3","2","30","36","faces","body_parts","Stimuli/Experimental_stims/scramble/faces/scrambled_good-faces-xmSWVeGEnJw-unsplash.jpg","Stimuli/Experimental_stims/scramble/body_parts/scrambled_callum-skelton-3KLMq7y46nA-unsplash.jpg","NaN","NaN","13.5","0.659","","","","","","","","","","","false","659","","","","","","","","","","","",""
"","scramble_instruction","","html-keyboard-response","268","111814","0.0-2.0-118.0-1.0-0.0","11","1234","11","799","","","","50","","58","","","0","","","","","","","3","","","","","","","","","","14.159","0.799","","1","30","36","faces","body_parts","","","","","","","1","","","","","","","","","","",""
"","deliberation_confirmation","","html-keyboard-response","269","111818","0.0-2.0-118.0-2.0-0.0","11","1234","11","null","","","","null","","58","","","","","","","","","","3","","","","","","","","","","14.958","-0.458","","","","","","","","","","","","","","","","","","","","","","","",""
"","iti","","html-keyboard-response","270","111926","0.0-2.0-118.0-4.0","11","1234","11","null","","","","null","","58","","","","","","","","","","3","","","","","","","","","","14.5","1","","","","","","","","","","","","","","","","","","","","","","","",""
"","deliberation","","html-keyboard-response","271","112094","0.0-2.0-120.0-0.0","11","1234","11","165","","","","50","","59","","","0","A","0","731","right","scramble","2000","3","2","18","50","outdoor_scenes","objects","Stimuli/Experimental_stims/scramble/outdoor_scenes/scrambled_meng-ji-8BH_M-53CyA-unsplash.jpg","Stimuli/Experimental_stims/scramble/objects/scrambled_andrew-petrov-TVJqDat4MAw-unsplash.jpg","NaN","NaN","15.5","0.731","","","","","","","","","","","false","731","","","","","","","","","","","",""
"","scramble_instruction","","html-keyboard-response","272","112413","0.0-2.0-120.0-1.0-0.0","11","1234","11","316","","","","50","","59","","","0","","","","","","","3","","","","","","","","","","16.231","0.316","","1","18","50","outdoor_scenes","objects","","","","","","","0","","","","","","","","","","",""
"","deliberation_confirmation","","html-keyboard-response","273","112416","0.0-2.0-120.0-2.0-0.0","11","1234","11","null","","","","null","","59","","","","","","","","","","3","","","","","","","","","","16.547","-0.047","","","","","","","","","","","","","","","","","","","","","","","",""
"","iti","","html-keyboard-response","274","112525","0.0-2.0-120.0-4.0","11","1234","11","null","","","","null","","59","","","","","","","","","","3","","","","","","","","","","16.5","2","","","","","","","","","","","","","","","","","","","","","","","",""
"","deliberation","","html-keyboard-response","275","112913","0.0-2.0-122.0-0.0","11","1234","11","385","","","","50","","60","","","0","I","0","941","right","scramble","1500","3","2","40","15","body_parts","outdoor_scenes","Stimuli/Experimental_stims/scramble/body_parts/scrambled_klara-kulikova-TcUfF24fUMY-unsplash.jpg","Stimuli/Experimental_stims/scramble/outdoor_scenes/scrambled_henry-be-NLF6hTe4PAg-unsplash.jpg","NaN","NaN","18.5","0.941","","","","","","","","","","","false","941","","","","","","","","","","","",""
"","scramble_instruction","","html-keyboard-response","276","113240","0.0-2.0-122.0-1.0-0.0","11","1234","11","324","","","","50","","60","","","0","","","","","","","3","","","","","","","","","","19.441","0.324","","1","40","15","body_parts","outdoor_scenes","","","","","","","0","","","","","","","","","","",""
