[{"init_locations":[{"src":"http://34.125.186.26/images/1_1.jpg","x":13,"y":76},{"src":"http://34.125.186.26/images/1_2.jpg","x":174,"y":76},{"src":"http://34.125.186.26/images/1_3.jpg","x":336,"y":76},{"src":"http://34.125.186.26/images/1_4.jpg","x":497,"y":76}],"moves":[{"src":"http://34.125.186.26/images/1_2.jpg","x":174,"y":314,"move_time":1750.5999999940395}],"final_locations":[{"final":{"src":"http://34.125.186.26/images/1_2.jpg","x":174,"y":314,"move_time":1750.5999999940395}}],"stars_time":[748.4000000059605],"end_time":[3397.3000000044703],"rt":2648.89999999851,"trial_type":"order","trial_index":0,"time_elapsed":2653,"internal_node_id":"0.0-0.0","subject":1688452125554,"condition":"conditionA"},{"init_locations":[{"src":"http://34.125.186.26/images/1_5.jpg","x":12,"y":76},{"src":"http://34.125.186.26/images/1_6.jpg","x":174,"y":76},{"src":"http://34.125.186.26/images/1_7.jpg","x":335,"y":76},{"src":"http://34.125.186.26/images/1_8.jpg","x":496,"y":76}],"moves":[],"final_locations":[{}],"stars_time":[3398.5],"end_time":[3661.3000000044703],"rt":262.80000000447035,"trial_type":"order","trial_index":1,"time_elapsed":2917,"internal_node_id":"0.0-1.0","subject":1688452125554,"condition":"conditionA"},{"init_locations":[{"src":"http://34.125.186.26/images/2_1.jpg","x":12,"y":76},{"src":"http://34.125.186.26/images/2_2.jpg","x":174,"y":76},{"src":"http://34.125.186.26/images/2_3.jpg","x":335,"y":76},{"src":"http://34.125.186.26/images/2_4.jpg","x":496,"y":76}],"moves":[],"final_locations":[{}],"stars_time":[3661.9000000059605],"end_time":[3902],"rt":240.09999999403954,"trial_type":"order","trial_index":2,"time_elapsed":3158,"internal_node_id":"0.0-2.0","subject":1688452125554,"condition":"conditionA"},{"init_locations":[{"src":"http://34.125.186.26/images/2_5.jpg","x":12,"y":76},{"src":"http://34.125.186.26/images/2_6.jpg","x":174,"y":76},{"src":"http://34.125.186.26/images/2_7.jpg","x":335,"y":76},{"src":"http://34.125.186.26/images/2_8.jpg","x":496,"y":76}],"moves":[],"final_locations":[{}],"stars_time":[3902.9000000059605],"end_time":[4107],"rt":204.09999999403954,"trial_type":"order","trial_index":3,"time_elapsed":3362,"internal_node_id":"0.0-3.0","subject":1688452125554,"condition":"conditionA"},{"init_locations":[{"src":"http://34.125.186.26/images/3_1.jpg","x":12,"y":76},{"src":"http://34.125.186.26/images/3_2.jpg","x":174,"y":76},{"src":"http://34.125.186.26/images/3_3.jpg","x":335,"y":76},{"src":"http://34.125.186.26/images/3_4.jpg","x":496,"y":76}],"moves":[],"final_locations":[{}],"stars_time":[4107.60000000149],"end_time":[4319.60000000149],"rt":212,"trial_type":"order","trial_index":4,"time_elapsed":3575,"internal_node_id":"0.0-4.0","subject":1688452125554,"condition":"conditionA"},{"init_locations":[{"src":"http://34.125.186.26/images/3_5.jpg","x":12,"y":76},{"src":"http://34.125.186.26/images/3_6.jpg","x":174,"y":76},{"src":"http://34.125.186.26/images/3_7.jpg","x":335,"y":76},{"src":"http://34.125.186.26/images/3_8.jpg","x":496,"y":76}],"moves":[],"final_locations":[{}],"stars_time":[4320.30000000447],"end_time":[4545.60000000149],"rt":225.29999999701977,"trial_type":"order","trial_index":5,"time_elapsed":3801,"internal_node_id":"0.0-5.0","subject":1688452125554,"condition":"conditionA"},{"init_locations":[{"src":"http://34.125.186.26/images/4_1.jpg","x":12,"y":76},{"src":"http://34.125.186.26/images/4_2.jpg","x":174,"y":76},{"src":"http://34.125.186.26/images/4_3.jpg","x":335,"y":76},{"src":"http://34.125.186.26/images/4_4.jpg","x":496,"y":76}],"moves":[],"final_locations":[{}],"stars_time":[4546.20000000298],"end_time":[4737.30000000447],"rt":191.10000000149012,"trial_type":"order","trial_index":6,"time_elapsed":3993,"internal_node_id":"0.0-6.0","subject":1688452125554,"condition":"conditionA"},{"init_locations":[{"src":"http://34.125.186.26/images/4_5.jpg","x":12,"y":76},{"src":"http://34.125.186.26/images/4_6.jpg","x":174,"y":76},{"src":"http://34.125.186.26/images/4_7.jpg","x":335,"y":76},{"src":"http://34.125.186.26/images/4_8.jpg","x":496,"y":76}],"moves":[],"final_locations":[{}],"stars_time":[4737.80000000447],"end_time":[4928.5],"rt":190.69999999552965,"trial_type":"order","trial_index":7,"time_elapsed":4184,"internal_node_id":"0.0-7.0","subject":1688452125554,"condition":"conditionA"},{"init_locations":[{"src":"http://34.125.186.26/images/5_1.jpg","x":12,"y":76},{"src":"http://34.125.186.26/images/5_2.jpg","x":174,"y":76},{"src":"http://34.125.186.26/images/5_3.jpg","x":335,"y":76},{"src":"http://34.125.186.26/images/5_4.jpg","x":496,"y":76}],"moves":[],"final_locations":[{}],"stars_time":[4929],"end_time":[5141.5],"rt":212.5,"trial_type":"order","trial_index":8,"time_elapsed":4397,"internal_node_id":"0.0-8.0","subject":1688452125554,"condition":"conditionA"},{"init_locations":[{"src":"http://34.125.186.26/images/5_5.jpg","x":12,"y":76},{"src":"http://34.125.186.26/images/5_6.jpg","x":174,"y":76},{"src":"http://34.125.186.26/images/5_7.jpg","x":335,"y":76},{"src":"http://34.125.186.26/images/5_8.jpg","x":496,"y":76}],"moves":[],"final_locations":[{}],"stars_time":[5142.4000000059605],"end_time":[5332.80000000447],"rt":190.39999999850988,"trial_type":"order","trial_index":9,"time_elapsed":4588,"internal_node_id":"0.0-9.0","subject":1688452125554,"condition":"conditionA"},{"init_locations":[{"src":"http://34.125.186.26/images/6_1.jpg","x":12,"y":76},{"src":"http://34.125.186.26/images/6_2.jpg","x":174,"y":76},{"src":"http://34.125.186.26/images/6_3.jpg","x":335,"y":76},{"src":"http://34.125.186.26/images/6_4.jpg","x":496,"y":76}],"moves":[],"final_locations":[{}],"stars_time":[5333.5],"end_time":[5545.30000000447],"rt":211.80000000447035,"trial_type":"order","trial_index":10,"time_elapsed":4801,"internal_node_id":"0.0-10.0","subject":1688452125554,"condition":"conditionA"},{"init_locations":[{"src":"http://34.125.186.26/images/6_5.jpg","x":12,"y":76},{"src":"http://34.125.186.26/images/6_6.jpg","x":174,"y":76},{"src":"http://34.125.186.26/images/6_7.jpg","x":335,"y":76},{"src":"http://34.125.186.26/images/6_8.jpg","x":496,"y":76}],"moves":[],"final_locations":[{}],"stars_time":[5545.80000000447],"end_time":[5758],"rt":212.19999999552965,"trial_type":"order","trial_index":11,"time_elapsed":5013,"internal_node_id":"0.0-11.0","subject":1688452125554,"condition":"conditionA"},{"init_locations":[{"src":"http://34.125.186.26/images/7_1.jpg","x":12,"y":76},{"src":"http://34.125.186.26/images/7_2.jpg","x":174,"y":76},{"src":"http://34.125.186.26/images/7_3.jpg","x":335,"y":76},{"src":"http://34.125.186.26/images/7_4.jpg","x":496,"y":76}],"moves":[],"final_locations":[{}],"stars_time":[5758.5],"end_time":[5964.9000000059605],"rt":206.40000000596046,"trial_type":"order","trial_index":12,"time_elapsed":5220,"internal_node_id":"0.0-12.0","subject":1688452125554,"condition":"conditionA"},{"init_locations":[{"src":"http://34.125.186.26/images/7_5.jpg","x":12,"y":76},{"src":"http://34.125.186.26/images/7_6.jpg","x":174,"y":76},{"src":"http://34.125.186.26/images/7_7.jpg","x":335,"y":76},{"src":"http://34.125.186.26/images/7_8.jpg","x":496,"y":76}],"moves":[],"final_locations":[{}],"stars_time":[5965.4000000059605],"end_time":[6162],"rt":196.59999999403954,"trial_type":"order","trial_index":13,"time_elapsed":5418,"internal_node_id":"0.0-13.0","subject":1688452125554,"condition":"conditionA"},{"init_locations":[{"src":"http://34.125.186.26/images/8_1.jpg","x":12,"y":76},{"src":"http://34.125.186.26/images/8_2.jpg","x":174,"y":76},{"src":"http://34.125.186.26/images/8_3.jpg","x":335,"y":76},{"src":"http://34.125.186.26/images/8_4.jpg","x":496,"y":76}],"moves":[],"final_locations":[{}],"stars_time":[6162.70000000298],"end_time":[6374.70000000298],"rt":212,"trial_type":"order","trial_index":14,"time_elapsed":5630,"internal_node_id":"0.0-14.0","subject":1688452125554,"condition":"conditionA"},{"init_locations":[{"src":"http://34.125.186.26/images/8_5.jpg","x":12,"y":76},{"src":"http://34.125.186.26/images/8_6.jpg","x":174,"y":76},{"src":"http://34.125.186.26/images/8_7.jpg","x":335,"y":76},{"src":"http://34.125.186.26/images/8_8.jpg","x":496,"y":76}],"moves":[],"final_locations":[{}],"stars_time":[6375.20000000298],"end_time":[6580.4000000059605],"rt":205.20000000298023,"trial_type":"order","trial_index":15,"time_elapsed":5836,"internal_node_id":"0.0-15.0","subject":1688452125554,"condition":"conditionA"},{"init_locations":[{"src":"http://34.125.186.26/images/9_1.jpg","x":12,"y":76},{"src":"http://34.125.186.26/images/9_2.jpg","x":174,"y":76},{"src":"http://34.125.186.26/images/9_3.jpg","x":335,"y":76},{"src":"http://34.125.186.26/images/9_4.jpg","x":496,"y":76}],"moves":[],"final_locations":[{}],"stars_time":[6581],"end_time":[6792.80000000447],"rt":211.80000000447035,"trial_type":"order","trial_index":16,"time_elapsed":6048,"internal_node_id":"0.0-16.0","subject":1688452125554,"condition":"conditionA"},{"init_locations":[{"src":"http://34.125.186.26/images/9_5.jpg","x":12,"y":76},{"src":"http://34.125.186.26/images/9_6.jpg","x":174,"y":76},{"src":"http://34.125.186.26/images/9_7.jpg","x":335,"y":76},{"src":"http://34.125.186.26/images/9_8.jpg","x":496,"y":76}],"moves":[],"final_locations":[{}],"stars_time":[6793.5],"end_time":[7004.60000000149],"rt":211.10000000149012,"trial_type":"order","trial_index":17,"time_elapsed":6260,"internal_node_id":"0.0-17.0","subject":1688452125554,"condition":"conditionA"},{"rt":1429,"stimulus":"<p>How difficult was it to order the pictures?</p>","button_pressed":"2","trial_type":"html-button-response","trial_index":18,"time_elapsed":7690,"internal_node_id":"0.0-18.0","subject":1688452125554,"condition":"conditionA"}]