[{"init_locations":[{"src":"http://34.125.186.26/images/1_1.jpg","x":317,"y":87},{"src":"http://34.125.186.26/images/1_2.jpg","x":478,"y":87},{"src":"http://34.125.186.26/images/1_3.jpg","x":640,"y":87},{"src":"http://34.125.186.26/images/1_4.jpg","x":801,"y":87}],"moves":[{"src":"http://34.125.186.26/images/1_2.jpg","x":201,"y":325,"move_time":7329.80000000447},{"src":"http://34.125.186.26/images/1_3.jpg","x":362,"y":325,"move_time":978.2999999970198}],"final_locations":[{"final":{"src":"http://34.125.186.26/images/1_3.jpg","x":362,"y":325,"move_time":978.2999999970198}}],"stars_time":[241.5],"end_time":[9344.80000000447],"rt":9103.30000000447,"trial_type":"order","trial_index":0,"time_elapsed":9107,"internal_node_id":"0.0-0.0","subject":1688443454162,"condition":"conditionB"},{"init_locations":[{"src":"http://34.125.186.26/images/1_5.jpg","x":40,"y":76},{"src":"http://34.125.186.26/images/1_6.jpg","x":201,"y":76},{"src":"http://34.125.186.26/images/1_7.jpg","x":362,"y":76},{"src":"http://34.125.186.26/images/1_8.jpg","x":524,"y":76}],"moves":[],"final_locations":[{}],"stars_time":[9346.10000000149],"end_time":[9552],"rt":205.89999999850988,"trial_type":"order","trial_index":1,"time_elapsed":9314,"internal_node_id":"0.0-1.0","subject":1688443454162,"condition":"conditionB"},{"init_locations":[{"src":"http://34.125.186.26/images/2_1.jpg","x":40,"y":76},{"src":"http://34.125.186.26/images/2_2.jpg","x":201,"y":76},{"src":"http://34.125.186.26/images/2_3.jpg","x":362,"y":76},{"src":"http://34.125.186.26/images/2_4.jpg","x":524,"y":76}],"moves":[],"final_locations":[{}],"stars_time":[9553.10000000149],"end_time":[9740.30000000447],"rt":187.20000000298023,"trial_type":"order","trial_index":2,"time_elapsed":9502,"internal_node_id":"0.0-2.0","subject":1688443454162,"condition":"conditionB"},{"init_locations":[{"src":"http://34.125.186.26/images/2_5.jpg","x":40,"y":76},{"src":"http://34.125.186.26/images/2_6.jpg","x":201,"y":76},{"src":"http://34.125.186.26/images/2_7.jpg","x":362,"y":76},{"src":"http://34.125.186.26/images/2_8.jpg","x":524,"y":76}],"moves":[],"final_locations":[{}],"stars_time":[9741.5],"end_time":[9920.10000000149],"rt":178.60000000149012,"trial_type":"order","trial_index":3,"time_elapsed":9682,"internal_node_id":"0.0-3.0","subject":1688443454162,"condition":"conditionB"},{"init_locations":[{"src":"http://34.125.186.26/images/3_1.jpg","x":40,"y":76},{"src":"http://34.125.186.26/images/3_2.jpg","x":201,"y":76},{"src":"http://34.125.186.26/images/3_3.jpg","x":362,"y":76},{"src":"http://34.125.186.26/images/3_4.jpg","x":524,"y":76}],"moves":[],"final_locations":[{}],"stars_time":[9921],"end_time":[10124.5],"rt":203.5,"trial_type":"order","trial_index":4,"time_elapsed":9886,"internal_node_id":"0.0-4.0","subject":1688443454162,"condition":"conditionB"},{"init_locations":[{"src":"http://34.125.186.26/images/3_5.jpg","x":40,"y":76},{"src":"http://34.125.186.26/images/3_6.jpg","x":201,"y":76},{"src":"http://34.125.186.26/images/3_7.jpg","x":362,"y":76},{"src":"http://34.125.186.26/images/3_8.jpg","x":524,"y":76}],"moves":[],"final_locations":[{}],"stars_time":[10125.60000000149],"end_time":[10336],"rt":210.39999999850988,"trial_type":"order","trial_index":5,"time_elapsed":10098,"internal_node_id":"0.0-5.0","subject":1688443454162,"condition":"conditionB"},{"init_locations":[{"src":"http://34.125.186.26/images/4_1.jpg","x":40,"y":76},{"src":"http://34.125.186.26/images/4_2.jpg","x":201,"y":76},{"src":"http://34.125.186.26/images/4_3.jpg","x":362,"y":76},{"src":"http://34.125.186.26/images/4_4.jpg","x":524,"y":76}],"moves":[],"final_locations":[{}],"stars_time":[10336.60000000149],"end_time":[10544.60000000149],"rt":208,"trial_type":"order","trial_index":6,"time_elapsed":10307,"internal_node_id":"0.0-6.0","subject":1688443454162,"condition":"conditionB"},{"init_locations":[{"src":"http://34.125.186.26/images/4_5.jpg","x":40,"y":76},{"src":"http://34.125.186.26/images/4_6.jpg","x":201,"y":76},{"src":"http://34.125.186.26/images/4_7.jpg","x":362,"y":76},{"src":"http://34.125.186.26/images/4_8.jpg","x":524,"y":76}],"moves":[],"final_locations":[{}],"stars_time":[10545.40000000596],"end_time":[10800.40000000596],"rt":255,"trial_type":"order","trial_index":7,"time_elapsed":10562,"internal_node_id":"0.0-7.0","subject":1688443454162,"condition":"conditionB"},{"init_locations":[{"src":"http://34.125.186.26/images/5_1.jpg","x":40,"y":76},{"src":"http://34.125.186.26/images/5_2.jpg","x":201,"y":76},{"src":"http://34.125.186.26/images/5_3.jpg","x":362,"y":76},{"src":"http://34.125.186.26/images/5_4.jpg","x":524,"y":76}],"moves":[],"final_locations":[{}],"stars_time":[10801.5],"end_time":[11008.40000000596],"rt":206.90000000596046,"trial_type":"order","trial_index":8,"time_elapsed":10770,"internal_node_id":"0.0-8.0","subject":1688443454162,"condition":"conditionB"},{"init_locations":[{"src":"http://34.125.186.26/images/5_5.jpg","x":40,"y":76},{"src":"http://34.125.186.26/images/5_6.jpg","x":201,"y":76},{"src":"http://34.125.186.26/images/5_7.jpg","x":362,"y":76},{"src":"http://34.125.186.26/images/5_8.jpg","x":524,"y":76}],"moves":[],"final_locations":[{}],"stars_time":[11009.30000000447],"end_time":[11232.40000000596],"rt":223.10000000149012,"trial_type":"order","trial_index":9,"time_elapsed":10994,"internal_node_id":"0.0-9.0","subject":1688443454162,"condition":"conditionB"},{"init_locations":[{"src":"http://34.125.186.26/images/6_1.jpg","x":40,"y":76},{"src":"http://34.125.186.26/images/6_2.jpg","x":201,"y":76},{"src":"http://34.125.186.26/images/6_3.jpg","x":362,"y":76},{"src":"http://34.125.186.26/images/6_4.jpg","x":524,"y":76}],"moves":[],"final_locations":[{}],"stars_time":[11233.10000000149],"end_time":[11440.40000000596],"rt":207.30000000447035,"trial_type":"order","trial_index":10,"time_elapsed":11202,"internal_node_id":"0.0-10.0","subject":1688443454162,"condition":"conditionB"},{"init_locations":[{"src":"http://34.125.186.26/images/6_5.jpg","x":40,"y":76},{"src":"http://34.125.186.26/images/6_6.jpg","x":201,"y":76},{"src":"http://34.125.186.26/images/6_7.jpg","x":362,"y":76},{"src":"http://34.125.186.26/images/6_8.jpg","x":524,"y":76}],"moves":[],"final_locations":[{}],"stars_time":[11441],"end_time":[11649.10000000149],"rt":208.10000000149012,"trial_type":"order","trial_index":11,"time_elapsed":11411,"internal_node_id":"0.0-11.0","subject":1688443454162,"condition":"conditionB"},{"init_locations":[{"src":"http://34.125.186.26/images/7_1.jpg","x":40,"y":76},{"src":"http://34.125.186.26/images/7_2.jpg","x":201,"y":76},{"src":"http://34.125.186.26/images/7_3.jpg","x":362,"y":76},{"src":"http://34.125.186.26/images/7_4.jpg","x":524,"y":76}],"moves":[],"final_locations":[{}],"stars_time":[11649.80000000447],"end_time":[11840.80000000447],"rt":191,"trial_type":"order","trial_index":12,"time_elapsed":11603,"internal_node_id":"0.0-12.0","subject":1688443454162,"condition":"conditionB"},{"init_locations":[{"src":"http://34.125.186.26/images/7_5.jpg","x":40,"y":76},{"src":"http://34.125.186.26/images/7_6.jpg","x":201,"y":76},{"src":"http://34.125.186.26/images/7_7.jpg","x":362,"y":76},{"src":"http://34.125.186.26/images/7_8.jpg","x":524,"y":76}],"moves":[],"final_locations":[{}],"stars_time":[11841.5],"end_time":[12048.80000000447],"rt":207.30000000447035,"trial_type":"order","trial_index":13,"time_elapsed":11811,"internal_node_id":"0.0-13.0","subject":1688443454162,"condition":"conditionB"},{"init_locations":[{"src":"http://34.125.186.26/images/8_1.jpg","x":40,"y":76},{"src":"http://34.125.186.26/images/8_2.jpg","x":201,"y":76},{"src":"http://34.125.186.26/images/8_3.jpg","x":362,"y":76},{"src":"http://34.125.186.26/images/8_4.jpg","x":524,"y":76}],"moves":[],"final_locations":[{}],"stars_time":[12049.70000000298],"end_time":[12260.40000000596],"rt":210.70000000298023,"trial_type":"order","trial_index":14,"time_elapsed":12022,"internal_node_id":"0.0-14.0","subject":1688443454162,"condition":"conditionB"},{"init_locations":[{"src":"http://34.125.186.26/images/8_5.jpg","x":40,"y":76},{"src":"http://34.125.186.26/images/8_6.jpg","x":201,"y":76},{"src":"http://34.125.186.26/images/8_7.jpg","x":362,"y":76},{"src":"http://34.125.186.26/images/8_8.jpg","x":524,"y":76}],"moves":[],"final_locations":[{}],"stars_time":[12261.40000000596],"end_time":[12479.80000000447],"rt":218.39999999850988,"trial_type":"order","trial_index":15,"time_elapsed":12242,"internal_node_id":"0.0-15.0","subject":1688443454162,"condition":"conditionB"},{"init_locations":[{"src":"http://34.125.186.26/images/9_1.jpg","x":40,"y":76},{"src":"http://34.125.186.26/images/9_2.jpg","x":201,"y":76},{"src":"http://34.125.186.26/images/9_3.jpg","x":362,"y":76},{"src":"http://34.125.186.26/images/9_4.jpg","x":524,"y":76}],"moves":[],"final_locations":[{}],"stars_time":[12480.30000000447],"end_time":[12704.60000000149],"rt":224.29999999701977,"trial_type":"order","trial_index":16,"time_elapsed":12467,"internal_node_id":"0.0-16.0","subject":1688443454162,"condition":"conditionB"},{"init_locations":[{"src":"http://34.125.186.26/images/9_5.jpg","x":40,"y":76},{"src":"http://34.125.186.26/images/9_6.jpg","x":201,"y":76},{"src":"http://34.125.186.26/images/9_7.jpg","x":362,"y":76},{"src":"http://34.125.186.26/images/9_8.jpg","x":524,"y":76}],"moves":[],"final_locations":[{}],"stars_time":[12705.30000000447],"end_time":[12928.20000000298],"rt":222.89999999850988,"trial_type":"order","trial_index":17,"time_elapsed":12690,"internal_node_id":"0.0-17.0","subject":1688443454162,"condition":"conditionB"},{"rt":1283.1000000014901,"stimulus":"<p>How difficult was it to order the pictures?</p>","button_pressed":"2","trial_type":"html-button-response","trial_index":18,"time_elapsed":13975,"internal_node_id":"0.0-18.0","subject":1688443454162,"condition":"conditionB"}]