[{"init_locations":[{"src":"http://localhost:8000/images/1_1.jpg","x":40,"y":87},{"src":"http://localhost:8000/images/1_2.jpg","x":201,"y":87},{"src":"http://localhost:8000/images/1_3.jpg","x":362,"y":87},{"src":"http://localhost:8000/images/1_4.jpg","x":524,"y":87}],"moves":[{"src":"http://localhost:8000/images/1_2.jpg","x":362,"y":325,"move_time":2147.4000000059605}],"final_locations":[{"final":{"src":"http://localhost:8000/images/1_2.jpg","x":362,"y":325,"move_time":2147.4000000059605}}],"stars_time":[385.5],"end_time":[3890.4000000059605],"rt":3504.9000000059605,"trial_type":"order","trial_index":0,"time_elapsed":3509,"internal_node_id":"0.0-0.0","subject":1688315897102,"condition":"conditionC"},{"init_locations":[{"src":"http://localhost:8000/images/1_5.jpg","x":40,"y":76},{"src":"http://localhost:8000/images/1_6.jpg","x":201,"y":76},{"src":"http://localhost:8000/images/1_7.jpg","x":362,"y":76},{"src":"http://localhost:8000/images/1_8.jpg","x":524,"y":76}],"moves":[],"final_locations":[{}],"stars_time":[3891.6000000089407],"end_time":[4081],"rt":189.3999999910593,"trial_type":"order","trial_index":1,"time_elapsed":3699,"internal_node_id":"0.0-1.0","subject":1688315897102,"condition":"conditionC"},{"init_locations":[{"src":"http://localhost:8000/images/2_1.jpg","x":40,"y":76},{"src":"http://localhost:8000/images/2_2.jpg","x":201,"y":76},{"src":"http://localhost:8000/images/2_3.jpg","x":362,"y":76},{"src":"http://localhost:8000/images/2_4.jpg","x":524,"y":76}],"moves":[],"final_locations":[{}],"stars_time":[4081.9000000059605],"end_time":[4273.300000011921],"rt":191.40000000596046,"trial_type":"order","trial_index":2,"time_elapsed":3892,"internal_node_id":"0.0-2.0","subject":1688315897102,"condition":"conditionC"},{"init_locations":[{"src":"http://localhost:8000/images/2_5.jpg","x":40,"y":76},{"src":"http://localhost:8000/images/2_6.jpg","x":201,"y":76},{"src":"http://localhost:8000/images/2_7.jpg","x":362,"y":76},{"src":"http://localhost:8000/images/2_8.jpg","x":524,"y":76}],"moves":[],"final_locations":[{}],"stars_time":[4274.20000000298],"end_time":[4465.4000000059605],"rt":191.20000000298023,"trial_type":"order","trial_index":3,"time_elapsed":4084,"internal_node_id":"0.0-3.0","subject":1688315897102,"condition":"conditionC"},{"init_locations":[{"src":"http://localhost:8000/images/3_1.jpg","x":40,"y":76},{"src":"http://localhost:8000/images/3_2.jpg","x":201,"y":76},{"src":"http://localhost:8000/images/3_3.jpg","x":362,"y":76},{"src":"http://localhost:8000/images/3_4.jpg","x":524,"y":76}],"moves":[],"final_locations":[{}],"stars_time":[4466.100000008941],"end_time":[4657.5],"rt":191.3999999910593,"trial_type":"order","trial_index":4,"time_elapsed":4276,"internal_node_id":"0.0-4.0","subject":1688315897102,"condition":"conditionC"},{"init_locations":[{"src":"http://localhost:8000/images/3_5.jpg","x":40,"y":76},{"src":"http://localhost:8000/images/3_6.jpg","x":201,"y":76},{"src":"http://localhost:8000/images/3_7.jpg","x":362,"y":76},{"src":"http://localhost:8000/images/3_8.jpg","x":524,"y":76}],"moves":[],"final_locations":[{}],"stars_time":[4658.600000008941],"end_time":[4865.300000011921],"rt":206.70000000298023,"trial_type":"order","trial_index":5,"time_elapsed":4484,"internal_node_id":"0.0-5.0","subject":1688315897102,"condition":"conditionC"},{"init_locations":[{"src":"http://localhost:8000/images/4_1.jpg","x":40,"y":76},{"src":"http://localhost:8000/images/4_2.jpg","x":201,"y":76},{"src":"http://localhost:8000/images/4_3.jpg","x":362,"y":76},{"src":"http://localhost:8000/images/4_4.jpg","x":524,"y":76}],"moves":[],"final_locations":[{}],"stars_time":[4866.20000000298],"end_time":[5057.300000011921],"rt":191.1000000089407,"trial_type":"order","trial_index":6,"time_elapsed":4676,"internal_node_id":"0.0-6.0","subject":1688315897102,"condition":"conditionC"},{"init_locations":[{"src":"http://localhost:8000/images/4_5.jpg","x":40,"y":76},{"src":"http://localhost:8000/images/4_6.jpg","x":201,"y":76},{"src":"http://localhost:8000/images/4_7.jpg","x":362,"y":76},{"src":"http://localhost:8000/images/4_8.jpg","x":524,"y":76}],"moves":[],"final_locations":[{}],"stars_time":[5057.9000000059605],"end_time":[5249.100000008941],"rt":191.20000000298023,"trial_type":"order","trial_index":7,"time_elapsed":4867,"internal_node_id":"0.0-7.0","subject":1688315897102,"condition":"conditionC"},{"init_locations":[{"src":"http://localhost:8000/images/5_1.jpg","x":40,"y":76},{"src":"http://localhost:8000/images/5_2.jpg","x":201,"y":76},{"src":"http://localhost:8000/images/5_3.jpg","x":362,"y":76},{"src":"http://localhost:8000/images/5_4.jpg","x":524,"y":76}],"moves":[],"final_locations":[{}],"stars_time":[5249.70000000298],"end_time":[5457.600000008941],"rt":207.90000000596046,"trial_type":"order","trial_index":8,"time_elapsed":5076,"internal_node_id":"0.0-8.0","subject":1688315897102,"condition":"conditionC"},{"init_locations":[{"src":"http://localhost:8000/images/5_5.jpg","x":40,"y":76},{"src":"http://localhost:8000/images/5_6.jpg","x":201,"y":76},{"src":"http://localhost:8000/images/5_7.jpg","x":362,"y":76},{"src":"http://localhost:8000/images/5_8.jpg","x":524,"y":76}],"moves":[],"final_locations":[{}],"stars_time":[5458.70000000298],"end_time":[5649.70000000298],"rt":191,"trial_type":"order","trial_index":9,"time_elapsed":5268,"internal_node_id":"0.0-9.0","subject":1688315897102,"condition":"conditionC"},{"init_locations":[{"src":"http://localhost:8000/images/6_1.jpg","x":40,"y":76},{"src":"http://localhost:8000/images/6_2.jpg","x":201,"y":76},{"src":"http://localhost:8000/images/6_3.jpg","x":362,"y":76},{"src":"http://localhost:8000/images/6_4.jpg","x":524,"y":76}],"moves":[],"final_locations":[{}],"stars_time":[5650.5],"end_time":[5857.4000000059605],"rt":206.90000000596046,"trial_type":"order","trial_index":10,"time_elapsed":5476,"internal_node_id":"0.0-10.0","subject":1688315897102,"condition":"conditionC"},{"init_locations":[{"src":"http://localhost:8000/images/6_5.jpg","x":40,"y":76},{"src":"http://localhost:8000/images/6_6.jpg","x":201,"y":76},{"src":"http://localhost:8000/images/6_7.jpg","x":362,"y":76},{"src":"http://localhost:8000/images/6_8.jpg","x":524,"y":76}],"moves":[],"final_locations":[{}],"stars_time":[5858.100000008941],"end_time":[6049.100000008941],"rt":191,"trial_type":"order","trial_index":11,"time_elapsed":5667,"internal_node_id":"0.0-11.0","subject":1688315897102,"condition":"conditionC"},{"init_locations":[{"src":"http://localhost:8000/images/7_1.jpg","x":40,"y":76},{"src":"http://localhost:8000/images/7_2.jpg","x":201,"y":76},{"src":"http://localhost:8000/images/7_3.jpg","x":362,"y":76},{"src":"http://localhost:8000/images/7_4.jpg","x":524,"y":76}],"moves":[],"final_locations":[{}],"stars_time":[6050.100000008941],"end_time":[6257.4000000059605],"rt":207.29999999701977,"trial_type":"order","trial_index":12,"time_elapsed":5876,"internal_node_id":"0.0-12.0","subject":1688315897102,"condition":"conditionC"},{"init_locations":[{"src":"http://localhost:8000/images/7_5.jpg","x":40,"y":76},{"src":"http://localhost:8000/images/7_6.jpg","x":201,"y":76},{"src":"http://localhost:8000/images/7_7.jpg","x":362,"y":76},{"src":"http://localhost:8000/images/7_8.jpg","x":524,"y":76}],"moves":[],"final_locations":[{}],"stars_time":[6258.100000008941],"end_time":[6485.4000000059605],"rt":227.29999999701977,"trial_type":"order","trial_index":13,"time_elapsed":6104,"internal_node_id":"0.0-13.0","subject":1688315897102,"condition":"conditionC"},{"init_locations":[{"src":"http://localhost:8000/images/8_1.jpg","x":40,"y":76},{"src":"http://localhost:8000/images/8_2.jpg","x":201,"y":76},{"src":"http://localhost:8000/images/8_3.jpg","x":362,"y":76},{"src":"http://localhost:8000/images/8_4.jpg","x":524,"y":76}],"moves":[],"final_locations":[{}],"stars_time":[6486.300000011921],"end_time":[6673.100000008941],"rt":186.79999999701977,"trial_type":"order","trial_index":14,"time_elapsed":6291,"internal_node_id":"0.0-14.0","subject":1688315897102,"condition":"conditionC"},{"init_locations":[{"src":"http://localhost:8000/images/8_5.jpg","x":40,"y":76},{"src":"http://localhost:8000/images/8_6.jpg","x":201,"y":76},{"src":"http://localhost:8000/images/8_7.jpg","x":362,"y":76},{"src":"http://localhost:8000/images/8_8.jpg","x":524,"y":76}],"moves":[],"final_locations":[{}],"stars_time":[6673.70000000298],"end_time":[6901.300000011921],"rt":227.6000000089407,"trial_type":"order","trial_index":15,"time_elapsed":6520,"internal_node_id":"0.0-15.0","subject":1688315897102,"condition":"conditionC"},{"init_locations":[{"src":"http://localhost:8000/images/9_1.jpg","x":40,"y":76},{"src":"http://localhost:8000/images/9_2.jpg","x":201,"y":76},{"src":"http://localhost:8000/images/9_3.jpg","x":362,"y":76},{"src":"http://localhost:8000/images/9_4.jpg","x":524,"y":76}],"moves":[],"final_locations":[{}],"stars_time":[6902.100000008941],"end_time":[7093.600000008941],"rt":191.5,"trial_type":"order","trial_index":16,"time_elapsed":6712,"internal_node_id":"0.0-16.0","subject":1688315897102,"condition":"conditionC"},{"init_locations":[{"src":"http://localhost:8000/images/9_5.jpg","x":40,"y":76},{"src":"http://localhost:8000/images/9_6.jpg","x":201,"y":76},{"src":"http://localhost:8000/images/9_7.jpg","x":362,"y":76},{"src":"http://localhost:8000/images/9_8.jpg","x":524,"y":76}],"moves":[],"final_locations":[{}],"stars_time":[7094.4000000059605],"end_time":[7301.4000000059605],"rt":207,"trial_type":"order","trial_index":17,"time_elapsed":6920,"internal_node_id":"0.0-17.0","subject":1688315897102,"condition":"conditionC"},{"rt":1215.5999999940395,"stimulus":"<p>How difficult was it to order the pictures?</p>","button_pressed":"2","trial_type":"html-button-response","trial_index":18,"time_elapsed":8137,"internal_node_id":"0.0-18.0","subject":1688315897102,"condition":"conditionC"}]