[{"init_locations":[{"src":"http://34.125.186.26/images/1_1.jpg","x":40,"y":87},{"src":"http://34.125.186.26/images/1_2.jpg","x":201,"y":87},{"src":"http://34.125.186.26/images/1_3.jpg","x":362,"y":87},{"src":"http://34.125.186.26/images/1_4.jpg","x":524,"y":87}],"moves":[{"src":"http://34.125.186.26/images/1_3.jpg","x":362,"y":325,"move_time":1707.6000000014901},{"src":"http://34.125.186.26/images/1_2.jpg","x":201,"y":325,"move_time":867.8999999985099},{"src":"http://34.125.186.26/images/1_1.jpg","x":40,"y":325,"move_time":640.6000000014901}],"final_locations":[{"final":{"src":"http://34.125.186.26/images/1_1.jpg","x":40,"y":325,"move_time":640.6000000014901}}],"stars_time":[273.80000000447035],"end_time":[4758.5],"rt":4484.69999999553,"trial_type":"order","trial_index":0,"time_elapsed":4482,"internal_node_id":"0.0-0.0","subject":1688443511135,"condition":"conditionC"},{"init_locations":[{"src":"http://34.125.186.26/images/1_5.jpg","x":40,"y":76},{"src":"http://34.125.186.26/images/1_6.jpg","x":201,"y":76},{"src":"http://34.125.186.26/images/1_7.jpg","x":362,"y":76},{"src":"http://34.125.186.26/images/1_8.jpg","x":524,"y":76}],"moves":[],"final_locations":[{}],"stars_time":[4760.20000000298],"end_time":[4949.9000000059605],"rt":189.70000000298023,"trial_type":"order","trial_index":1,"time_elapsed":4673,"internal_node_id":"0.0-1.0","subject":1688443511135,"condition":"conditionC"},{"init_locations":[{"src":"http://34.125.186.26/images/2_1.jpg","x":40,"y":76},{"src":"http://34.125.186.26/images/2_2.jpg","x":201,"y":76},{"src":"http://34.125.186.26/images/2_3.jpg","x":362,"y":76},{"src":"http://34.125.186.26/images/2_4.jpg","x":524,"y":76}],"moves":[],"final_locations":[{}],"stars_time":[4950.70000000298],"end_time":[5166.70000000298],"rt":216,"trial_type":"order","trial_index":2,"time_elapsed":4890,"internal_node_id":"0.0-2.0","subject":1688443511135,"condition":"conditionC"},{"init_locations":[{"src":"http://34.125.186.26/images/2_5.jpg","x":40,"y":76},{"src":"http://34.125.186.26/images/2_6.jpg","x":201,"y":76},{"src":"http://34.125.186.26/images/2_7.jpg","x":362,"y":76},{"src":"http://34.125.186.26/images/2_8.jpg","x":524,"y":76}],"moves":[],"final_locations":[{}],"stars_time":[5167.70000000298],"end_time":[5366.20000000298],"rt":198.5,"trial_type":"order","trial_index":3,"time_elapsed":5090,"internal_node_id":"0.0-3.0","subject":1688443511135,"condition":"conditionC"},{"init_locations":[{"src":"http://34.125.186.26/images/3_1.jpg","x":40,"y":76},{"src":"http://34.125.186.26/images/3_2.jpg","x":201,"y":76},{"src":"http://34.125.186.26/images/3_3.jpg","x":362,"y":76},{"src":"http://34.125.186.26/images/3_4.jpg","x":524,"y":76}],"moves":[],"final_locations":[{}],"stars_time":[5367],"end_time":[5574.60000000149],"rt":207.60000000149012,"trial_type":"order","trial_index":4,"time_elapsed":5298,"internal_node_id":"0.0-4.0","subject":1688443511135,"condition":"conditionC"},{"init_locations":[{"src":"http://34.125.186.26/images/3_5.jpg","x":40,"y":76},{"src":"http://34.125.186.26/images/3_6.jpg","x":201,"y":76},{"src":"http://34.125.186.26/images/3_7.jpg","x":362,"y":76},{"src":"http://34.125.186.26/images/3_8.jpg","x":524,"y":76}],"moves":[],"final_locations":[{}],"stars_time":[5575.80000000447],"end_time":[5786.30000000447],"rt":210.5,"trial_type":"order","trial_index":5,"time_elapsed":5510,"internal_node_id":"0.0-5.0","subject":1688443511135,"condition":"conditionC"},{"init_locations":[{"src":"http://34.125.186.26/images/4_1.jpg","x":40,"y":76},{"src":"http://34.125.186.26/images/4_2.jpg","x":201,"y":76},{"src":"http://34.125.186.26/images/4_3.jpg","x":362,"y":76},{"src":"http://34.125.186.26/images/4_4.jpg","x":524,"y":76}],"moves":[],"final_locations":[{}],"stars_time":[5787.10000000149],"end_time":[6014.60000000149],"rt":227.5,"trial_type":"order","trial_index":6,"time_elapsed":5738,"internal_node_id":"0.0-6.0","subject":1688443511135,"condition":"conditionC"},{"init_locations":[{"src":"http://34.125.186.26/images/4_5.jpg","x":40,"y":76},{"src":"http://34.125.186.26/images/4_6.jpg","x":201,"y":76},{"src":"http://34.125.186.26/images/4_7.jpg","x":362,"y":76},{"src":"http://34.125.186.26/images/4_8.jpg","x":524,"y":76}],"moves":[],"final_locations":[{}],"stars_time":[6015.9000000059605],"end_time":[6202.5],"rt":186.59999999403954,"trial_type":"order","trial_index":7,"time_elapsed":5926,"internal_node_id":"0.0-7.0","subject":1688443511135,"condition":"conditionC"},{"init_locations":[{"src":"http://34.125.186.26/images/5_1.jpg","x":40,"y":76},{"src":"http://34.125.186.26/images/5_2.jpg","x":201,"y":76},{"src":"http://34.125.186.26/images/5_3.jpg","x":362,"y":76},{"src":"http://34.125.186.26/images/5_4.jpg","x":524,"y":76}],"moves":[],"final_locations":[{}],"stars_time":[6203.5],"end_time":[6430.5],"rt":227,"trial_type":"order","trial_index":8,"time_elapsed":6154,"internal_node_id":"0.0-8.0","subject":1688443511135,"condition":"conditionC"},{"init_locations":[{"src":"http://34.125.186.26/images/5_5.jpg","x":40,"y":76},{"src":"http://34.125.186.26/images/5_6.jpg","x":201,"y":76},{"src":"http://34.125.186.26/images/5_7.jpg","x":362,"y":76},{"src":"http://34.125.186.26/images/5_8.jpg","x":524,"y":76}],"moves":[],"final_locations":[{}],"stars_time":[6431.5],"end_time":[6634.60000000149],"rt":203.10000000149012,"trial_type":"order","trial_index":9,"time_elapsed":6358,"internal_node_id":"0.0-9.0","subject":1688443511135,"condition":"conditionC"},{"init_locations":[{"src":"http://34.125.186.26/images/6_1.jpg","x":40,"y":76},{"src":"http://34.125.186.26/images/6_2.jpg","x":201,"y":76},{"src":"http://34.125.186.26/images/6_3.jpg","x":362,"y":76},{"src":"http://34.125.186.26/images/6_4.jpg","x":524,"y":76}],"moves":[],"final_locations":[{}],"stars_time":[6635.30000000447],"end_time":[6858.30000000447],"rt":223,"trial_type":"order","trial_index":10,"time_elapsed":6582,"internal_node_id":"0.0-10.0","subject":1688443511135,"condition":"conditionC"},{"init_locations":[{"src":"http://34.125.186.26/images/6_5.jpg","x":40,"y":76},{"src":"http://34.125.186.26/images/6_6.jpg","x":201,"y":76},{"src":"http://34.125.186.26/images/6_7.jpg","x":362,"y":76},{"src":"http://34.125.186.26/images/6_8.jpg","x":524,"y":76}],"moves":[],"final_locations":[{}],"stars_time":[6858.9000000059605],"end_time":[7066.4000000059605],"rt":207.5,"trial_type":"order","trial_index":11,"time_elapsed":6790,"internal_node_id":"0.0-11.0","subject":1688443511135,"condition":"conditionC"},{"init_locations":[{"src":"http://34.125.186.26/images/7_1.jpg","x":40,"y":76},{"src":"http://34.125.186.26/images/7_2.jpg","x":201,"y":76},{"src":"http://34.125.186.26/images/7_3.jpg","x":362,"y":76},{"src":"http://34.125.186.26/images/7_4.jpg","x":524,"y":76}],"moves":[],"final_locations":[{}],"stars_time":[7067.30000000447],"end_time":[7294.10000000149],"rt":226.79999999701977,"trial_type":"order","trial_index":12,"time_elapsed":7017,"internal_node_id":"0.0-12.0","subject":1688443511135,"condition":"conditionC"},{"init_locations":[{"src":"http://34.125.186.26/images/7_5.jpg","x":40,"y":76},{"src":"http://34.125.186.26/images/7_6.jpg","x":201,"y":76},{"src":"http://34.125.186.26/images/7_7.jpg","x":362,"y":76},{"src":"http://34.125.186.26/images/7_8.jpg","x":524,"y":76}],"moves":[],"final_locations":[{}],"stars_time":[7294.80000000447],"end_time":[7530.4000000059605],"rt":235.60000000149012,"trial_type":"order","trial_index":13,"time_elapsed":7254,"internal_node_id":"0.0-13.0","subject":1688443511135,"condition":"conditionC"},{"init_locations":[{"src":"http://34.125.186.26/images/8_1.jpg","x":40,"y":76},{"src":"http://34.125.186.26/images/8_2.jpg","x":201,"y":76},{"src":"http://34.125.186.26/images/8_3.jpg","x":362,"y":76},{"src":"http://34.125.186.26/images/8_4.jpg","x":524,"y":76}],"moves":[],"final_locations":[{}],"stars_time":[7531.4000000059605],"end_time":[7770.10000000149],"rt":238.69999999552965,"trial_type":"order","trial_index":14,"time_elapsed":7493,"internal_node_id":"0.0-14.0","subject":1688443511135,"condition":"conditionC"},{"init_locations":[{"src":"http://34.125.186.26/images/8_5.jpg","x":40,"y":76},{"src":"http://34.125.186.26/images/8_6.jpg","x":201,"y":76},{"src":"http://34.125.186.26/images/8_7.jpg","x":362,"y":76},{"src":"http://34.125.186.26/images/8_8.jpg","x":524,"y":76}],"moves":[],"final_locations":[{}],"stars_time":[7770.80000000447],"end_time":[7994.5],"rt":223.69999999552965,"trial_type":"order","trial_index":15,"time_elapsed":7718,"internal_node_id":"0.0-15.0","subject":1688443511135,"condition":"conditionC"},{"init_locations":[{"src":"http://34.125.186.26/images/9_1.jpg","x":40,"y":76},{"src":"http://34.125.186.26/images/9_2.jpg","x":201,"y":76},{"src":"http://34.125.186.26/images/9_3.jpg","x":362,"y":76},{"src":"http://34.125.186.26/images/9_4.jpg","x":524,"y":76}],"moves":[],"final_locations":[{}],"stars_time":[7995.30000000447],"end_time":[8206.20000000298],"rt":210.89999999850988,"trial_type":"order","trial_index":16,"time_elapsed":7930,"internal_node_id":"0.0-16.0","subject":1688443511135,"condition":"conditionC"},{"init_locations":[{"src":"http://34.125.186.26/images/9_5.jpg","x":40,"y":76},{"src":"http://34.125.186.26/images/9_6.jpg","x":201,"y":76},{"src":"http://34.125.186.26/images/9_7.jpg","x":362,"y":76},{"src":"http://34.125.186.26/images/9_8.jpg","x":524,"y":76}],"moves":[],"final_locations":[{}],"stars_time":[8207.10000000149],"end_time":[8426.20000000298],"rt":219.10000000149012,"trial_type":"order","trial_index":17,"time_elapsed":8150,"internal_node_id":"0.0-17.0","subject":1688443511135,"condition":"conditionC"},{"rt":1267.0999999940395,"stimulus":"<p>How difficult was it to order the pictures?</p>","button_pressed":"2","trial_type":"html-button-response","trial_index":18,"time_elapsed":9419,"internal_node_id":"0.0-18.0","subject":1688443511135,"condition":"conditionC"}]