"init_locations","moves","final_locations","stars_time","end_time","rt","trial_type","trial_index","time_elapsed","internal_node_id","subject","condition","button_pressed"
"[object Object],[object Object],[object Object],[object Object]","[object Object],[object Object],[object Object]","[object Object]","495.70000000298023","11700.30000000447","11204.60000000149","order","0","11219","0.0-0.0","1688280843831","conditionB",""
"[object Object],[object Object],[object Object],[object Object]","","[object Object]","11701.60000000149","11911.5","209.89999999850988","order","1","11430","0.0-1.0","1688280843831","conditionB",""
"[object Object],[object Object],[object Object],[object Object]","","[object Object]","11912.30000000447","12107.89999999851","195.59999999403954","order","2","11626","0.0-2.0","1688280843831","conditionB",""
"[object Object],[object Object],[object Object],[object Object]","","[object Object]","12109.10000000149","12311.70000000298","202.60000000149012","order","3","11830","0.0-3.0","1688280843831","conditionB",""
"[object Object],[object Object],[object Object],[object Object]","","[object Object]","12312.70000000298","12519.89999999851","207.19999999552965","order","4","12038","0.0-4.0","1688280843831","conditionB",""
"[object Object],[object Object],[object Object],[object Object]","","[object Object]","12520.89999999851","12711.89999999851","191","order","5","12230","0.0-5.0","1688280843831","conditionB",""
"[object Object],[object Object],[object Object],[object Object]","","[object Object]","12712.70000000298","12935.5","222.79999999701977","order","6","12453","0.0-6.0","1688280843831","conditionB",""
"[object Object],[object Object],[object Object],[object Object]","","[object Object]","12936.10000000149","13159.39999999851","223.29999999701977","order","7","12677","0.0-7.0","1688280843831","conditionB",""
"[object Object],[object Object],[object Object],[object Object]","","[object Object]","13160.20000000298","13367.89999999851","207.69999999552965","order","8","12886","0.0-8.0","1688280843831","conditionB",""
"[object Object],[object Object],[object Object],[object Object]","","[object Object]","13368.70000000298","13607.89999999851","239.19999999552965","order","9","13126","0.0-9.0","1688280843831","conditionB",""
"[object Object],[object Object],[object Object],[object Object]","","[object Object]","13608.60000000149","13847.39999999851","238.79999999701977","order","10","13365","0.0-10.0","1688280843831","conditionB",""
"[object Object],[object Object],[object Object],[object Object]","","[object Object]","13848.30000000447","14087.80000000447","239.5","order","11","13606","0.0-11.0","1688280843831","conditionB",""
"[object Object],[object Object],[object Object],[object Object]","","[object Object]","14088.89999999851","14311.20000000298","222.30000000447035","order","12","13829","0.0-12.0","1688280843831","conditionB",""
"[object Object],[object Object],[object Object],[object Object]","","[object Object]","14311.80000000447","14535.89999999851","224.09999999403954","order","13","14054","0.0-13.0","1688280843831","conditionB",""
"[object Object],[object Object],[object Object],[object Object]","","[object Object]","14536.60000000149","14743.80000000447","207.20000000298023","order","14","14261","0.0-14.0","1688280843831","conditionB",""
"[object Object],[object Object],[object Object],[object Object]","","[object Object]","14744.30000000447","14955.70000000298","211.39999999850988","order","15","14473","0.0-15.0","1688280843831","conditionB",""
"[object Object],[object Object],[object Object],[object Object]","","[object Object]","14956.39999999851","15180","223.60000000149012","order","16","14698","0.0-16.0","1688280843831","conditionB",""
"[object Object],[object Object],[object Object],[object Object]","","[object Object]","15180.89999999851","15404.10000000149","223.20000000298023","order","17","14922","0.0-17.0","1688280843831","conditionB",""
"","","","","","1022.2999999970198","html-button-response","18","15946","0.0-18.0","1688280843831","conditionB","2"
