[{"init_locations":[{"src":"http://localhost:8000/images/1_1.jpg","x":40,"y":87},{"src":"http://localhost:8000/images/1_2.jpg","x":201,"y":87},{"src":"http://localhost:8000/images/1_3.jpg","x":362,"y":87},{"src":"http://localhost:8000/images/1_4.jpg","x":524,"y":87}],"moves":[{"src":"http://localhost:8000/images/1_4.jpg","x":524,"y":325,"move_time":2546},{"src":"http://localhost:8000/images/1_3.jpg","x":362,"y":325,"move_time":914.7999999970198},{"src":"http://localhost:8000/images/1_2.jpg","x":201,"y":325,"move_time":806.2000000029802},{"src":"http://localhost:8000/images/1_1.jpg","x":40,"y":325,"move_time":751.4000000059605}],"final_locations":[{"final":{"src":"http://localhost:8000/images/1_1.jpg","x":40,"y":325,"move_time":751.4000000059605}}],"stars_time":[147.20000000298023],"end_time":[6171],"rt":6023.79999999702,"trial_type":"order","trial_index":0,"time_elapsed":6032,"internal_node_id":"0.0-0.0","subject":1688315949528,"condition":"conditionC"},{"init_locations":[{"src":"http://localhost:8000/images/1_5.jpg","x":40,"y":76},{"src":"http://localhost:8000/images/1_6.jpg","x":201,"y":76},{"src":"http://localhost:8000/images/1_7.jpg","x":362,"y":76},{"src":"http://localhost:8000/images/1_8.jpg","x":524,"y":76}],"moves":[],"final_locations":[{}],"stars_time":[6172.5],"end_time":[6378.79999999702],"rt":206.29999999701977,"trial_type":"order","trial_index":1,"time_elapsed":6240,"internal_node_id":"0.0-1.0","subject":1688315949528,"condition":"conditionC"},{"init_locations":[{"src":"http://localhost:8000/images/2_1.jpg","x":40,"y":76},{"src":"http://localhost:8000/images/2_2.jpg","x":201,"y":76},{"src":"http://localhost:8000/images/2_3.jpg","x":362,"y":76},{"src":"http://localhost:8000/images/2_4.jpg","x":524,"y":76}],"moves":[],"final_locations":[{}],"stars_time":[6379.79999999702],"end_time":[6606.9000000059605],"rt":227.1000000089407,"trial_type":"order","trial_index":2,"time_elapsed":6468,"internal_node_id":"0.0-2.0","subject":1688315949528,"condition":"conditionC"},{"init_locations":[{"src":"http://localhost:8000/images/2_5.jpg","x":40,"y":76},{"src":"http://localhost:8000/images/2_6.jpg","x":201,"y":76},{"src":"http://localhost:8000/images/2_7.jpg","x":362,"y":76},{"src":"http://localhost:8000/images/2_8.jpg","x":524,"y":76}],"moves":[],"final_locations":[{}],"stars_time":[6607.9000000059605],"end_time":[6810.600000008941],"rt":202.70000000298023,"trial_type":"order","trial_index":3,"time_elapsed":6671,"internal_node_id":"0.0-3.0","subject":1688315949528,"condition":"conditionC"},{"init_locations":[{"src":"http://localhost:8000/images/3_1.jpg","x":40,"y":76},{"src":"http://localhost:8000/images/3_2.jpg","x":201,"y":76},{"src":"http://localhost:8000/images/3_3.jpg","x":362,"y":76},{"src":"http://localhost:8000/images/3_4.jpg","x":524,"y":76}],"moves":[],"final_locations":[{}],"stars_time":[6811.600000008941],"end_time":[7027],"rt":215.3999999910593,"trial_type":"order","trial_index":4,"time_elapsed":6888,"internal_node_id":"0.0-4.0","subject":1688315949528,"condition":"conditionC"},{"init_locations":[{"src":"http://localhost:8000/images/3_5.jpg","x":40,"y":76},{"src":"http://localhost:8000/images/3_6.jpg","x":201,"y":76},{"src":"http://localhost:8000/images/3_7.jpg","x":362,"y":76},{"src":"http://localhost:8000/images/3_8.jpg","x":524,"y":76}],"moves":[],"final_locations":[{}],"stars_time":[7028.20000000298],"end_time":[7234.9000000059605],"rt":206.70000000298023,"trial_type":"order","trial_index":5,"time_elapsed":7096,"internal_node_id":"0.0-5.0","subject":1688315949528,"condition":"conditionC"},{"init_locations":[{"src":"http://localhost:8000/images/4_1.jpg","x":40,"y":76},{"src":"http://localhost:8000/images/4_2.jpg","x":201,"y":76},{"src":"http://localhost:8000/images/4_3.jpg","x":362,"y":76},{"src":"http://localhost:8000/images/4_4.jpg","x":524,"y":76}],"moves":[],"final_locations":[{}],"stars_time":[7235.9000000059605],"end_time":[7458.79999999702],"rt":222.8999999910593,"trial_type":"order","trial_index":6,"time_elapsed":7319,"internal_node_id":"0.0-6.0","subject":1688315949528,"condition":"conditionC"},{"init_locations":[{"src":"http://localhost:8000/images/4_5.jpg","x":40,"y":76},{"src":"http://localhost:8000/images/4_6.jpg","x":201,"y":76},{"src":"http://localhost:8000/images/4_7.jpg","x":362,"y":76},{"src":"http://localhost:8000/images/4_8.jpg","x":524,"y":76}],"moves":[],"final_locations":[{}],"stars_time":[7459.600000008941],"end_time":[7682.600000008941],"rt":223,"trial_type":"order","trial_index":7,"time_elapsed":7543,"internal_node_id":"0.0-7.0","subject":1688315949528,"condition":"conditionC"},{"init_locations":[{"src":"http://localhost:8000/images/5_1.jpg","x":40,"y":76},{"src":"http://localhost:8000/images/5_2.jpg","x":201,"y":76},{"src":"http://localhost:8000/images/5_3.jpg","x":362,"y":76},{"src":"http://localhost:8000/images/5_4.jpg","x":524,"y":76}],"moves":[],"final_locations":[{}],"stars_time":[7683.29999999702],"end_time":[7906.9000000059605],"rt":223.6000000089407,"trial_type":"order","trial_index":8,"time_elapsed":7768,"internal_node_id":"0.0-8.0","subject":1688315949528,"condition":"conditionC"},{"init_locations":[{"src":"http://localhost:8000/images/5_5.jpg","x":40,"y":76},{"src":"http://localhost:8000/images/5_6.jpg","x":201,"y":76},{"src":"http://localhost:8000/images/5_7.jpg","x":362,"y":76},{"src":"http://localhost:8000/images/5_8.jpg","x":524,"y":76}],"moves":[],"final_locations":[{}],"stars_time":[7907.79999999702],"end_time":[8147],"rt":239.20000000298023,"trial_type":"order","trial_index":9,"time_elapsed":8008,"internal_node_id":"0.0-9.0","subject":1688315949528,"condition":"conditionC"},{"init_locations":[{"src":"http://localhost:8000/images/6_1.jpg","x":40,"y":76},{"src":"http://localhost:8000/images/6_2.jpg","x":201,"y":76},{"src":"http://localhost:8000/images/6_3.jpg","x":362,"y":76},{"src":"http://localhost:8000/images/6_4.jpg","x":524,"y":76}],"moves":[],"final_locations":[{}],"stars_time":[8147.9000000059605],"end_time":[8370.90000000596],"rt":223,"trial_type":"order","trial_index":10,"time_elapsed":8232,"internal_node_id":"0.0-10.0","subject":1688315949528,"condition":"conditionC"},{"init_locations":[{"src":"http://localhost:8000/images/6_5.jpg","x":40,"y":76},{"src":"http://localhost:8000/images/6_6.jpg","x":201,"y":76},{"src":"http://localhost:8000/images/6_7.jpg","x":362,"y":76},{"src":"http://localhost:8000/images/6_8.jpg","x":524,"y":76}],"moves":[],"final_locations":[{}],"stars_time":[8372],"end_time":[8579],"rt":207,"trial_type":"order","trial_index":11,"time_elapsed":8440,"internal_node_id":"0.0-11.0","subject":1688315949528,"condition":"conditionC"},{"init_locations":[{"src":"http://localhost:8000/images/7_1.jpg","x":40,"y":76},{"src":"http://localhost:8000/images/7_2.jpg","x":201,"y":76},{"src":"http://localhost:8000/images/7_3.jpg","x":362,"y":76},{"src":"http://localhost:8000/images/7_4.jpg","x":524,"y":76}],"moves":[],"final_locations":[{}],"stars_time":[8579.5],"end_time":[8822.5],"rt":243,"trial_type":"order","trial_index":12,"time_elapsed":8683,"internal_node_id":"0.0-12.0","subject":1688315949528,"condition":"conditionC"},{"init_locations":[{"src":"http://localhost:8000/images/7_5.jpg","x":40,"y":76},{"src":"http://localhost:8000/images/7_6.jpg","x":201,"y":76},{"src":"http://localhost:8000/images/7_7.jpg","x":362,"y":76},{"src":"http://localhost:8000/images/7_8.jpg","x":524,"y":76}],"moves":[],"final_locations":[{}],"stars_time":[8823.29999999702],"end_time":[9046.70000000298],"rt":223.40000000596046,"trial_type":"order","trial_index":13,"time_elapsed":8907,"internal_node_id":"0.0-13.0","subject":1688315949528,"condition":"conditionC"},{"init_locations":[{"src":"http://localhost:8000/images/8_1.jpg","x":40,"y":76},{"src":"http://localhost:8000/images/8_2.jpg","x":201,"y":76},{"src":"http://localhost:8000/images/8_3.jpg","x":362,"y":76},{"src":"http://localhost:8000/images/8_4.jpg","x":524,"y":76}],"moves":[],"final_locations":[{}],"stars_time":[9047.5],"end_time":[9270.90000000596],"rt":223.40000000596046,"trial_type":"order","trial_index":14,"time_elapsed":9132,"internal_node_id":"0.0-14.0","subject":1688315949528,"condition":"conditionC"},{"init_locations":[{"src":"http://localhost:8000/images/8_5.jpg","x":40,"y":76},{"src":"http://localhost:8000/images/8_6.jpg","x":201,"y":76},{"src":"http://localhost:8000/images/8_7.jpg","x":362,"y":76},{"src":"http://localhost:8000/images/8_8.jpg","x":524,"y":76}],"moves":[],"final_locations":[{}],"stars_time":[9271.60000000894],"end_time":[9510.70000000298],"rt":239.09999999403954,"trial_type":"order","trial_index":15,"time_elapsed":9371,"internal_node_id":"0.0-15.0","subject":1688315949528,"condition":"conditionC"},{"init_locations":[{"src":"http://localhost:8000/images/9_1.jpg","x":40,"y":76},{"src":"http://localhost:8000/images/9_2.jpg","x":201,"y":76},{"src":"http://localhost:8000/images/9_3.jpg","x":362,"y":76},{"src":"http://localhost:8000/images/9_4.jpg","x":524,"y":76}],"moves":[],"final_locations":[{}],"stars_time":[9511.40000000596],"end_time":[9734.90000000596],"rt":223.5,"trial_type":"order","trial_index":16,"time_elapsed":9596,"internal_node_id":"0.0-16.0","subject":1688315949528,"condition":"conditionC"},{"init_locations":[{"src":"http://localhost:8000/images/9_5.jpg","x":40,"y":76},{"src":"http://localhost:8000/images/9_6.jpg","x":201,"y":76},{"src":"http://localhost:8000/images/9_7.jpg","x":362,"y":76},{"src":"http://localhost:8000/images/9_8.jpg","x":524,"y":76}],"moves":[],"final_locations":[{}],"stars_time":[9735.79999999702],"end_time":[9959.10000000894],"rt":223.30000001192093,"trial_type":"order","trial_index":17,"time_elapsed":9820,"internal_node_id":"0.0-17.0","subject":1688315949528,"condition":"conditionC"},{"rt":1406.6000000089407,"stimulus":"<p>How difficult was it to order the pictures?</p>","button_pressed":"2","trial_type":"html-button-response","trial_index":18,"time_elapsed":11228,"internal_node_id":"0.0-18.0","subject":1688315949528,"condition":"conditionC"}]