[{"init_locations":[{"src":"http://34.125.186.26/images/1_1.jpg","x":317,"y":103},{"src":"http://34.125.186.26/images/1_2.jpg","x":478,"y":103},{"src":"http://34.125.186.26/images/1_3.jpg","x":640,"y":103},{"src":"http://34.125.186.26/images/1_4.jpg","x":801,"y":103}],"moves":[{"src":"http://34.125.186.26/images/1_2.jpg","x":362,"y":341,"move_time":15643.5}],"final_locations":[{"final":{"src":"http://34.125.186.26/images/1_2.jpg","x":362,"y":341,"move_time":15643.5}}],"stars_time":[171.60000000149012],"end_time":[17069.5],"rt":16897.89999999851,"trial_type":"order","trial_index":0,"time_elapsed":16901,"internal_node_id":"0.0-0.0","subject":1688450251060,"condition":"conditionB"},{"init_locations":[{"src":"http://34.125.186.26/images/1_5.jpg","x":40,"y":91},{"src":"http://34.125.186.26/images/1_6.jpg","x":201,"y":91},{"src":"http://34.125.186.26/images/1_7.jpg","x":362,"y":91},{"src":"http://34.125.186.26/images/1_8.jpg","x":524,"y":91}],"moves":[],"final_locations":[{}],"stars_time":[17070.90000000596],"end_time":[17292.70000000298],"rt":221.79999999701977,"trial_type":"order","trial_index":1,"time_elapsed":17124,"internal_node_id":"0.0-1.0","subject":1688450251060,"condition":"conditionB"},{"init_locations":[{"src":"http://34.125.186.26/images/2_1.jpg","x":40,"y":91},{"src":"http://34.125.186.26/images/2_2.jpg","x":201,"y":91},{"src":"http://34.125.186.26/images/2_3.jpg","x":362,"y":91},{"src":"http://34.125.186.26/images/2_4.jpg","x":524,"y":91}],"moves":[],"final_locations":[{}],"stars_time":[17293.70000000298],"end_time":[17461],"rt":167.29999999701977,"trial_type":"order","trial_index":2,"time_elapsed":17292,"internal_node_id":"0.0-2.0","subject":1688450251060,"condition":"conditionB"},{"init_locations":[{"src":"http://34.125.186.26/images/2_5.jpg","x":40,"y":91},{"src":"http://34.125.186.26/images/2_6.jpg","x":201,"y":91},{"src":"http://34.125.186.26/images/2_7.jpg","x":362,"y":91},{"src":"http://34.125.186.26/images/2_8.jpg","x":524,"y":91}],"moves":[],"final_locations":[{}],"stars_time":[17461.80000000447],"end_time":[17685],"rt":223.19999999552965,"trial_type":"order","trial_index":3,"time_elapsed":17516,"internal_node_id":"0.0-3.0","subject":1688450251060,"condition":"conditionB"},{"init_locations":[{"src":"http://34.125.186.26/images/3_1.jpg","x":40,"y":91},{"src":"http://34.125.186.26/images/3_2.jpg","x":201,"y":91},{"src":"http://34.125.186.26/images/3_3.jpg","x":362,"y":91},{"src":"http://34.125.186.26/images/3_4.jpg","x":524,"y":91}],"moves":[],"final_locations":[{}],"stars_time":[17686.20000000298],"end_time":[17861.10000000149],"rt":174.89999999850988,"trial_type":"order","trial_index":4,"time_elapsed":17692,"internal_node_id":"0.0-4.0","subject":1688450251060,"condition":"conditionB"},{"init_locations":[{"src":"http://34.125.186.26/images/3_5.jpg","x":40,"y":91},{"src":"http://34.125.186.26/images/3_6.jpg","x":201,"y":91},{"src":"http://34.125.186.26/images/3_7.jpg","x":362,"y":91},{"src":"http://34.125.186.26/images/3_8.jpg","x":524,"y":91}],"moves":[],"final_locations":[{}],"stars_time":[17862.10000000149],"end_time":[18053],"rt":190.89999999850988,"trial_type":"order","trial_index":5,"time_elapsed":17884,"internal_node_id":"0.0-5.0","subject":1688450251060,"condition":"conditionB"},{"init_locations":[{"src":"http://34.125.186.26/images/4_1.jpg","x":40,"y":91},{"src":"http://34.125.186.26/images/4_2.jpg","x":201,"y":91},{"src":"http://34.125.186.26/images/4_3.jpg","x":362,"y":91},{"src":"http://34.125.186.26/images/4_4.jpg","x":524,"y":91}],"moves":[],"final_locations":[{}],"stars_time":[18054.10000000149],"end_time":[18261],"rt":206.89999999850988,"trial_type":"order","trial_index":6,"time_elapsed":18092,"internal_node_id":"0.0-6.0","subject":1688450251060,"condition":"conditionB"},{"init_locations":[{"src":"http://34.125.186.26/images/4_5.jpg","x":40,"y":91},{"src":"http://34.125.186.26/images/4_6.jpg","x":201,"y":91},{"src":"http://34.125.186.26/images/4_7.jpg","x":362,"y":91},{"src":"http://34.125.186.26/images/4_8.jpg","x":524,"y":91}],"moves":[],"final_locations":[{}],"stars_time":[18262.10000000149],"end_time":[18452.80000000447],"rt":190.70000000298023,"trial_type":"order","trial_index":7,"time_elapsed":18284,"internal_node_id":"0.0-7.0","subject":1688450251060,"condition":"conditionB"},{"init_locations":[{"src":"http://34.125.186.26/images/5_1.jpg","x":40,"y":91},{"src":"http://34.125.186.26/images/5_2.jpg","x":201,"y":91},{"src":"http://34.125.186.26/images/5_3.jpg","x":362,"y":91},{"src":"http://34.125.186.26/images/5_4.jpg","x":524,"y":91}],"moves":[],"final_locations":[{}],"stars_time":[18453.80000000447],"end_time":[18644.80000000447],"rt":191,"trial_type":"order","trial_index":8,"time_elapsed":18476,"internal_node_id":"0.0-8.0","subject":1688450251060,"condition":"conditionB"},{"init_locations":[{"src":"http://34.125.186.26/images/5_5.jpg","x":40,"y":91},{"src":"http://34.125.186.26/images/5_6.jpg","x":201,"y":91},{"src":"http://34.125.186.26/images/5_7.jpg","x":362,"y":91},{"src":"http://34.125.186.26/images/5_8.jpg","x":524,"y":91}],"moves":[],"final_locations":[{}],"stars_time":[18645.60000000149],"end_time":[18853.60000000149],"rt":208,"trial_type":"order","trial_index":9,"time_elapsed":18685,"internal_node_id":"0.0-9.0","subject":1688450251060,"condition":"conditionB"},{"init_locations":[{"src":"http://34.125.186.26/images/6_1.jpg","x":40,"y":91},{"src":"http://34.125.186.26/images/6_2.jpg","x":201,"y":91},{"src":"http://34.125.186.26/images/6_3.jpg","x":362,"y":91},{"src":"http://34.125.186.26/images/6_4.jpg","x":524,"y":91}],"moves":[],"final_locations":[{}],"stars_time":[18854.70000000298],"end_time":[19061],"rt":206.29999999701977,"trial_type":"order","trial_index":10,"time_elapsed":18892,"internal_node_id":"0.0-10.0","subject":1688450251060,"condition":"conditionB"},{"init_locations":[{"src":"http://34.125.186.26/images/6_5.jpg","x":40,"y":91},{"src":"http://34.125.186.26/images/6_6.jpg","x":201,"y":91},{"src":"http://34.125.186.26/images/6_7.jpg","x":362,"y":91},{"src":"http://34.125.186.26/images/6_8.jpg","x":524,"y":91}],"moves":[],"final_locations":[{}],"stars_time":[19061.80000000447],"end_time":[19269.10000000149],"rt":207.29999999701977,"trial_type":"order","trial_index":11,"time_elapsed":19100,"internal_node_id":"0.0-11.0","subject":1688450251060,"condition":"conditionB"},{"init_locations":[{"src":"http://34.125.186.26/images/7_1.jpg","x":40,"y":91},{"src":"http://34.125.186.26/images/7_2.jpg","x":201,"y":91},{"src":"http://34.125.186.26/images/7_3.jpg","x":362,"y":91},{"src":"http://34.125.186.26/images/7_4.jpg","x":524,"y":91}],"moves":[],"final_locations":[{}],"stars_time":[19269.90000000596],"end_time":[19477.30000000447],"rt":207.39999999850988,"trial_type":"order","trial_index":12,"time_elapsed":19308,"internal_node_id":"0.0-12.0","subject":1688450251060,"condition":"conditionB"},{"init_locations":[{"src":"http://34.125.186.26/images/7_5.jpg","x":40,"y":91},{"src":"http://34.125.186.26/images/7_6.jpg","x":201,"y":91},{"src":"http://34.125.186.26/images/7_7.jpg","x":362,"y":91},{"src":"http://34.125.186.26/images/7_8.jpg","x":524,"y":91}],"moves":[],"final_locations":[{}],"stars_time":[19478.60000000149],"end_time":[19684.70000000298],"rt":206.10000000149012,"trial_type":"order","trial_index":13,"time_elapsed":19516,"internal_node_id":"0.0-13.0","subject":1688450251060,"condition":"conditionB"},{"init_locations":[{"src":"http://34.125.186.26/images/8_1.jpg","x":40,"y":91},{"src":"http://34.125.186.26/images/8_2.jpg","x":201,"y":91},{"src":"http://34.125.186.26/images/8_3.jpg","x":362,"y":91},{"src":"http://34.125.186.26/images/8_4.jpg","x":524,"y":91}],"moves":[],"final_locations":[{}],"stars_time":[19685.40000000596],"end_time":[19897.5],"rt":212.09999999403954,"trial_type":"order","trial_index":14,"time_elapsed":19728,"internal_node_id":"0.0-14.0","subject":1688450251060,"condition":"conditionB"},{"init_locations":[{"src":"http://34.125.186.26/images/8_5.jpg","x":40,"y":91},{"src":"http://34.125.186.26/images/8_6.jpg","x":201,"y":91},{"src":"http://34.125.186.26/images/8_7.jpg","x":362,"y":91},{"src":"http://34.125.186.26/images/8_8.jpg","x":524,"y":91}],"moves":[],"final_locations":[{}],"stars_time":[19898.20000000298],"end_time":[20088.90000000596],"rt":190.70000000298023,"trial_type":"order","trial_index":15,"time_elapsed":19920,"internal_node_id":"0.0-15.0","subject":1688450251060,"condition":"conditionB"},{"init_locations":[{"src":"http://34.125.186.26/images/9_1.jpg","x":40,"y":91},{"src":"http://34.125.186.26/images/9_2.jpg","x":201,"y":91},{"src":"http://34.125.186.26/images/9_3.jpg","x":362,"y":91},{"src":"http://34.125.186.26/images/9_4.jpg","x":524,"y":91}],"moves":[],"final_locations":[{}],"stars_time":[20089.60000000149],"end_time":[20296.90000000596],"rt":207.30000000447035,"trial_type":"order","trial_index":16,"time_elapsed":20128,"internal_node_id":"0.0-16.0","subject":1688450251060,"condition":"conditionB"},{"init_locations":[{"src":"http://34.125.186.26/images/9_5.jpg","x":40,"y":91},{"src":"http://34.125.186.26/images/9_6.jpg","x":201,"y":91},{"src":"http://34.125.186.26/images/9_7.jpg","x":362,"y":91},{"src":"http://34.125.186.26/images/9_8.jpg","x":524,"y":91}],"moves":[],"final_locations":[{}],"stars_time":[20297.60000000149],"end_time":[20512.70000000298],"rt":215.10000000149012,"trial_type":"order","trial_index":17,"time_elapsed":20344,"internal_node_id":"0.0-17.0","subject":1688450251060,"condition":"conditionB"},{"rt":1135.0999999940395,"stimulus":"<p>How difficult was it to order the pictures?</p>","button_pressed":"2","trial_type":"html-button-response","trial_index":18,"time_elapsed":21480,"internal_node_id":"0.0-18.0","subject":1688450251060,"condition":"conditionB"}]