[{"init_locations":[{"src":"http://127.0.0.1:5501/images/1_1.jpg","x":290,"y":87},{"src":"http://127.0.0.1:5501/images/1_2.jpg","x":451,"y":87},{"src":"http://127.0.0.1:5501/images/1_3.jpg","x":612,"y":87},{"src":"http://127.0.0.1:5501/images/1_4.jpg","x":774,"y":87}],"moves":[{"src":"http://127.0.0.1:5501/images/1_1.jpg","x":290,"y":325,"move_time":180339.70000000298},{"src":"http://127.0.0.1:5501/images/1_2.jpg","x":451,"y":325,"move_time":907.6999999955297},{"src":"http://127.0.0.1:5501/images/1_3.jpg","x":612,"y":325,"move_time":1056.8000000044703},{"src":"http://127.0.0.1:5501/images/1_4.jpg","x":774,"y":325,"move_time":959.6000000014901}],"final_locations":[{"final":{"src":"http://127.0.0.1:5501/images/1_4.jpg","x":774,"y":325,"move_time":959.6000000014901}}],"stars_time":[241.19999999552965],"end_time":[184175.3999999985],"rt":183934.20000000298,"trial_type":"order","trial_index":0,"time_elapsed":183944,"internal_node_id":"0.0-0.0","subject":1688280953787,"condition":"conditionA"},{"init_locations":[{"src":"http://127.0.0.1:5501/images/1_5.jpg","x":290,"y":76},{"src":"http://127.0.0.1:5501/images/1_6.jpg","x":451,"y":76},{"src":"http://127.0.0.1:5501/images/1_7.jpg","x":612,"y":76},{"src":"http://127.0.0.1:5501/images/1_8.jpg","x":774,"y":76}],"moves":[],"final_locations":[{}],"stars_time":[184176.5],"end_time":[184366.5],"rt":190,"trial_type":"order","trial_index":1,"time_elapsed":184135,"internal_node_id":"0.0-1.0","subject":1688280953787,"condition":"conditionA"},{"init_locations":[{"src":"http://127.0.0.1:5501/images/2_1.jpg","x":290,"y":76},{"src":"http://127.0.0.1:5501/images/2_2.jpg","x":451,"y":76},{"src":"http://127.0.0.1:5501/images/2_3.jpg","x":612,"y":76},{"src":"http://127.0.0.1:5501/images/2_4.jpg","x":774,"y":76}],"moves":[],"final_locations":[{}],"stars_time":[184367.5],"end_time":[184575],"rt":207.5,"trial_type":"order","trial_index":2,"time_elapsed":184343,"internal_node_id":"0.0-2.0","subject":1688280953787,"condition":"conditionA"},{"init_locations":[{"src":"http://127.0.0.1:5501/images/2_5.jpg","x":290,"y":76},{"src":"http://127.0.0.1:5501/images/2_6.jpg","x":451,"y":76},{"src":"http://127.0.0.1:5501/images/2_7.jpg","x":612,"y":76},{"src":"http://127.0.0.1:5501/images/2_8.jpg","x":774,"y":76}],"moves":[],"final_locations":[{}],"stars_time":[184576.09999999404],"end_time":[184782.8999999985],"rt":206.80000000447035,"trial_type":"order","trial_index":3,"time_elapsed":184551,"internal_node_id":"0.0-3.0","subject":1688280953787,"condition":"conditionA"},{"init_locations":[{"src":"http://127.0.0.1:5501/images/3_1.jpg","x":290,"y":76},{"src":"http://127.0.0.1:5501/images/3_2.jpg","x":451,"y":76},{"src":"http://127.0.0.1:5501/images/3_3.jpg","x":612,"y":76},{"src":"http://127.0.0.1:5501/images/3_4.jpg","x":774,"y":76}],"moves":[{"src":"http://127.0.0.1:5501/images/3_1.jpg","x":290,"y":325,"move_time":1097.6999999955297},{"src":"http://127.0.0.1:5501/images/3_2.jpg","x":451,"y":325,"move_time":691.5},{"src":"http://127.0.0.1:5501/images/3_3.jpg","x":612,"y":325,"move_time":927.1000000014901},{"src":"http://127.0.0.1:5501/images/3_4.jpg","x":612,"y":325,"move_time":767.7000000029802}],"final_locations":[{"final":{"src":"http://127.0.0.1:5501/images/3_4.jpg","x":612,"y":325,"move_time":767.7000000029802}}],"stars_time":[184784],"end_time":[189171.09999999404],"rt":4387.0999999940395,"trial_type":"order","trial_index":4,"time_elapsed":188939,"internal_node_id":"0.0-4.0","subject":1688280953787,"condition":"conditionA"},{"init_locations":[{"src":"http://127.0.0.1:5501/images/3_5.jpg","x":290,"y":76},{"src":"http://127.0.0.1:5501/images/3_6.jpg","x":451,"y":76},{"src":"http://127.0.0.1:5501/images/3_7.jpg","x":612,"y":76},{"src":"http://127.0.0.1:5501/images/3_8.jpg","x":774,"y":76}],"moves":[],"final_locations":[{}],"stars_time":[189172],"end_time":[189379],"rt":207,"trial_type":"order","trial_index":5,"time_elapsed":189147,"internal_node_id":"0.0-5.0","subject":1688280953787,"condition":"conditionA"},{"init_locations":[{"src":"http://127.0.0.1:5501/images/4_1.jpg","x":290,"y":76},{"src":"http://127.0.0.1:5501/images/4_2.jpg","x":451,"y":76},{"src":"http://127.0.0.1:5501/images/4_3.jpg","x":612,"y":76},{"src":"http://127.0.0.1:5501/images/4_4.jpg","x":774,"y":76}],"moves":[],"final_locations":[{}],"stars_time":[189379.79999999702],"end_time":[189559.19999999553],"rt":179.39999999850988,"trial_type":"order","trial_index":6,"time_elapsed":189327,"internal_node_id":"0.0-6.0","subject":1688280953787,"condition":"conditionA"},{"init_locations":[{"src":"http://127.0.0.1:5501/images/4_5.jpg","x":290,"y":76},{"src":"http://127.0.0.1:5501/images/4_6.jpg","x":451,"y":76},{"src":"http://127.0.0.1:5501/images/4_7.jpg","x":612,"y":76},{"src":"http://127.0.0.1:5501/images/4_8.jpg","x":774,"y":76}],"moves":[],"final_locations":[{}],"stars_time":[189560.09999999404],"end_time":[189767],"rt":206.90000000596046,"trial_type":"order","trial_index":7,"time_elapsed":189535,"internal_node_id":"0.0-7.0","subject":1688280953787,"condition":"conditionA"},{"init_locations":[{"src":"http://127.0.0.1:5501/images/5_1.jpg","x":290,"y":76},{"src":"http://127.0.0.1:5501/images/5_2.jpg","x":451,"y":76},{"src":"http://127.0.0.1:5501/images/5_3.jpg","x":612,"y":76},{"src":"http://127.0.0.1:5501/images/5_4.jpg","x":774,"y":76}],"moves":[],"final_locations":[{}],"stars_time":[189767.8999999985],"end_time":[189959.09999999404],"rt":191.19999999552965,"trial_type":"order","trial_index":8,"time_elapsed":189727,"internal_node_id":"0.0-8.0","subject":1688280953787,"condition":"conditionA"},{"init_locations":[{"src":"http://127.0.0.1:5501/images/5_5.jpg","x":290,"y":76},{"src":"http://127.0.0.1:5501/images/5_6.jpg","x":451,"y":76},{"src":"http://127.0.0.1:5501/images/5_7.jpg","x":612,"y":76},{"src":"http://127.0.0.1:5501/images/5_8.jpg","x":774,"y":76}],"moves":[],"final_locations":[{}],"stars_time":[189959.79999999702],"end_time":[190151.09999999404],"rt":191.29999999701977,"trial_type":"order","trial_index":9,"time_elapsed":189919,"internal_node_id":"0.0-9.0","subject":1688280953787,"condition":"conditionA"},{"init_locations":[{"src":"http://127.0.0.1:5501/images/6_1.jpg","x":290,"y":76},{"src":"http://127.0.0.1:5501/images/6_2.jpg","x":451,"y":76},{"src":"http://127.0.0.1:5501/images/6_3.jpg","x":612,"y":76},{"src":"http://127.0.0.1:5501/images/6_4.jpg","x":774,"y":76}],"moves":[],"final_locations":[{}],"stars_time":[190151.79999999702],"end_time":[190343],"rt":191.20000000298023,"trial_type":"order","trial_index":10,"time_elapsed":190111,"internal_node_id":"0.0-10.0","subject":1688280953787,"condition":"conditionA"},{"init_locations":[{"src":"http://127.0.0.1:5501/images/6_5.jpg","x":290,"y":76},{"src":"http://127.0.0.1:5501/images/6_6.jpg","x":451,"y":76},{"src":"http://127.0.0.1:5501/images/6_7.jpg","x":612,"y":76},{"src":"http://127.0.0.1:5501/images/6_8.jpg","x":774,"y":76}],"moves":[],"final_locations":[{}],"stars_time":[190343.79999999702],"end_time":[190535],"rt":191.20000000298023,"trial_type":"order","trial_index":11,"time_elapsed":190303,"internal_node_id":"0.0-11.0","subject":1688280953787,"condition":"conditionA"},{"init_locations":[{"src":"http://127.0.0.1:5501/images/7_1.jpg","x":290,"y":76},{"src":"http://127.0.0.1:5501/images/7_2.jpg","x":451,"y":76},{"src":"http://127.0.0.1:5501/images/7_3.jpg","x":612,"y":76},{"src":"http://127.0.0.1:5501/images/7_4.jpg","x":774,"y":76}],"moves":[],"final_locations":[{}],"stars_time":[190535.79999999702],"end_time":[190743.29999999702],"rt":207.5,"trial_type":"order","trial_index":12,"time_elapsed":190512,"internal_node_id":"0.0-12.0","subject":1688280953787,"condition":"conditionA"},{"init_locations":[{"src":"http://127.0.0.1:5501/images/7_5.jpg","x":290,"y":76},{"src":"http://127.0.0.1:5501/images/7_6.jpg","x":451,"y":76},{"src":"http://127.0.0.1:5501/images/7_7.jpg","x":612,"y":76},{"src":"http://127.0.0.1:5501/images/7_8.jpg","x":774,"y":76}],"moves":[],"final_locations":[{}],"stars_time":[190744.3999999985],"end_time":[190951.09999999404],"rt":206.69999999552965,"trial_type":"order","trial_index":13,"time_elapsed":190719,"internal_node_id":"0.0-13.0","subject":1688280953787,"condition":"conditionA"},{"init_locations":[{"src":"http://127.0.0.1:5501/images/8_1.jpg","x":290,"y":76},{"src":"http://127.0.0.1:5501/images/8_2.jpg","x":451,"y":76},{"src":"http://127.0.0.1:5501/images/8_3.jpg","x":612,"y":76},{"src":"http://127.0.0.1:5501/images/8_4.jpg","x":774,"y":76}],"moves":[],"final_locations":[{}],"stars_time":[190951.79999999702],"end_time":[191143.19999999553],"rt":191.39999999850988,"trial_type":"order","trial_index":14,"time_elapsed":190911,"internal_node_id":"0.0-14.0","subject":1688280953787,"condition":"conditionA"},{"init_locations":[{"src":"http://127.0.0.1:5501/images/8_5.jpg","x":290,"y":76},{"src":"http://127.0.0.1:5501/images/8_6.jpg","x":451,"y":76},{"src":"http://127.0.0.1:5501/images/8_7.jpg","x":612,"y":76},{"src":"http://127.0.0.1:5501/images/8_8.jpg","x":774,"y":76}],"moves":[],"final_locations":[{}],"stars_time":[191144.09999999404],"end_time":[191351],"rt":206.90000000596046,"trial_type":"order","trial_index":15,"time_elapsed":191119,"internal_node_id":"0.0-15.0","subject":1688280953787,"condition":"conditionA"},{"init_locations":[{"src":"http://127.0.0.1:5501/images/9_1.jpg","x":290,"y":76},{"src":"http://127.0.0.1:5501/images/9_2.jpg","x":451,"y":76},{"src":"http://127.0.0.1:5501/images/9_3.jpg","x":612,"y":76},{"src":"http://127.0.0.1:5501/images/9_4.jpg","x":774,"y":76}],"moves":[],"final_locations":[{}],"stars_time":[191351.8999999985],"end_time":[191559.09999999404],"rt":207.19999999552965,"trial_type":"order","trial_index":16,"time_elapsed":191327,"internal_node_id":"0.0-16.0","subject":1688280953787,"condition":"conditionA"},{"init_locations":[{"src":"http://127.0.0.1:5501/images/9_5.jpg","x":290,"y":76},{"src":"http://127.0.0.1:5501/images/9_6.jpg","x":451,"y":76},{"src":"http://127.0.0.1:5501/images/9_7.jpg","x":612,"y":76},{"src":"http://127.0.0.1:5501/images/9_8.jpg","x":774,"y":76}],"moves":[],"final_locations":[{}],"stars_time":[191560],"end_time":[191750.59999999404],"rt":190.59999999403954,"trial_type":"order","trial_index":17,"time_elapsed":191519,"internal_node_id":"0.0-17.0","subject":1688280953787,"condition":"conditionA"},{"rt":1267.2999999970198,"button_pressed":"1","trial_type":"html-button-response","trial_index":18,"time_elapsed":192789,"internal_node_id":"0.0-18.0","subject":1688280953787,"condition":"conditionA"}]