[{"init_locations":[{"src":"http://34.125.186.26/images/1_1.jpg","x":40,"y":103},{"src":"http://34.125.186.26/images/1_2.jpg","x":201,"y":103},{"src":"http://34.125.186.26/images/1_3.jpg","x":362,"y":103},{"src":"http://34.125.186.26/images/1_4.jpg","x":524,"y":103}],"moves":[{"src":"http://34.125.186.26/images/1_3.jpg","x":524,"y":341,"move_time":1271.3999999985099}],"final_locations":[{"final":{"src":"http://34.125.186.26/images/1_3.jpg","x":524,"y":341,"move_time":1271.3999999985099}}],"stars_time":[2004],"end_time":[3985.2000000029802],"rt":1981.2000000029802,"trial_type":"order","trial_index":0,"time_elapsed":1987,"internal_node_id":"0.0-0.0","subject":1688450644039,"condition":"conditionC"},{"init_locations":[{"src":"http://34.125.186.26/images/1_5.jpg","x":40,"y":91},{"src":"http://34.125.186.26/images/1_6.jpg","x":201,"y":91},{"src":"http://34.125.186.26/images/1_7.jpg","x":362,"y":91},{"src":"http://34.125.186.26/images/1_8.jpg","x":524,"y":91}],"moves":[],"final_locations":[{}],"stars_time":[3986.3000000044703],"end_time":[4192.39999999851],"rt":206.09999999403954,"trial_type":"order","trial_index":1,"time_elapsed":2194,"internal_node_id":"0.0-1.0","subject":1688450644039,"condition":"conditionC"},{"init_locations":[{"src":"http://34.125.186.26/images/2_1.jpg","x":40,"y":91},{"src":"http://34.125.186.26/images/2_2.jpg","x":201,"y":91},{"src":"http://34.125.186.26/images/2_3.jpg","x":362,"y":91},{"src":"http://34.125.186.26/images/2_4.jpg","x":524,"y":91}],"moves":[],"final_locations":[{}],"stars_time":[4193.30000000447],"end_time":[4384.60000000149],"rt":191.29999999701977,"trial_type":"order","trial_index":2,"time_elapsed":2386,"internal_node_id":"0.0-2.0","subject":1688450644039,"condition":"conditionC"},{"init_locations":[{"src":"http://34.125.186.26/images/2_5.jpg","x":40,"y":91},{"src":"http://34.125.186.26/images/2_6.jpg","x":201,"y":91},{"src":"http://34.125.186.26/images/2_7.jpg","x":362,"y":91},{"src":"http://34.125.186.26/images/2_8.jpg","x":524,"y":91}],"moves":[],"final_locations":[{}],"stars_time":[4385.39999999851],"end_time":[4560],"rt":174.60000000149012,"trial_type":"order","trial_index":3,"time_elapsed":2561,"internal_node_id":"0.0-3.0","subject":1688450644039,"condition":"conditionC"},{"init_locations":[{"src":"http://34.125.186.26/images/3_1.jpg","x":40,"y":91},{"src":"http://34.125.186.26/images/3_2.jpg","x":201,"y":91},{"src":"http://34.125.186.26/images/3_3.jpg","x":362,"y":91},{"src":"http://34.125.186.26/images/3_4.jpg","x":524,"y":91}],"moves":[],"final_locations":[{}],"stars_time":[4560.60000000149],"end_time":[4754.70000000298],"rt":194.10000000149012,"trial_type":"order","trial_index":4,"time_elapsed":2756,"internal_node_id":"0.0-4.0","subject":1688450644039,"condition":"conditionC"},{"init_locations":[{"src":"http://34.125.186.26/images/3_5.jpg","x":40,"y":91},{"src":"http://34.125.186.26/images/3_6.jpg","x":201,"y":91},{"src":"http://34.125.186.26/images/3_7.jpg","x":362,"y":91},{"src":"http://34.125.186.26/images/3_8.jpg","x":524,"y":91}],"moves":[],"final_locations":[{}],"stars_time":[4755.5],"end_time":[4930.70000000298],"rt":175.20000000298023,"trial_type":"order","trial_index":5,"time_elapsed":2932,"internal_node_id":"0.0-5.0","subject":1688450644039,"condition":"conditionC"},{"init_locations":[{"src":"http://34.125.186.26/images/4_1.jpg","x":40,"y":91},{"src":"http://34.125.186.26/images/4_2.jpg","x":201,"y":91},{"src":"http://34.125.186.26/images/4_3.jpg","x":362,"y":91},{"src":"http://34.125.186.26/images/4_4.jpg","x":524,"y":91}],"moves":[],"final_locations":[{}],"stars_time":[4931.70000000298],"end_time":[5121.5],"rt":189.79999999701977,"trial_type":"order","trial_index":6,"time_elapsed":3123,"internal_node_id":"0.0-6.0","subject":1688450644039,"condition":"conditionC"},{"init_locations":[{"src":"http://34.125.186.26/images/4_5.jpg","x":40,"y":91},{"src":"http://34.125.186.26/images/4_6.jpg","x":201,"y":91},{"src":"http://34.125.186.26/images/4_7.jpg","x":362,"y":91},{"src":"http://34.125.186.26/images/4_8.jpg","x":524,"y":91}],"moves":[],"final_locations":[{}],"stars_time":[5122.39999999851],"end_time":[5319.70000000298],"rt":197.30000000447035,"trial_type":"order","trial_index":7,"time_elapsed":3321,"internal_node_id":"0.0-7.0","subject":1688450644039,"condition":"conditionC"},{"init_locations":[{"src":"http://34.125.186.26/images/5_1.jpg","x":40,"y":91},{"src":"http://34.125.186.26/images/5_2.jpg","x":201,"y":91},{"src":"http://34.125.186.26/images/5_3.jpg","x":362,"y":91},{"src":"http://34.125.186.26/images/5_4.jpg","x":524,"y":91}],"moves":[],"final_locations":[{}],"stars_time":[5321.30000000447],"end_time":[5488.30000000447],"rt":167,"trial_type":"order","trial_index":8,"time_elapsed":3490,"internal_node_id":"0.0-8.0","subject":1688450644039,"condition":"conditionC"},{"init_locations":[{"src":"http://34.125.186.26/images/5_5.jpg","x":40,"y":91},{"src":"http://34.125.186.26/images/5_6.jpg","x":201,"y":91},{"src":"http://34.125.186.26/images/5_7.jpg","x":362,"y":91},{"src":"http://34.125.186.26/images/5_8.jpg","x":524,"y":91}],"moves":[],"final_locations":[{}],"stars_time":[5489.20000000298],"end_time":[5696.30000000447],"rt":207.10000000149012,"trial_type":"order","trial_index":9,"time_elapsed":3698,"internal_node_id":"0.0-9.0","subject":1688450644039,"condition":"conditionC"},{"init_locations":[{"src":"http://34.125.186.26/images/6_1.jpg","x":40,"y":91},{"src":"http://34.125.186.26/images/6_2.jpg","x":201,"y":91},{"src":"http://34.125.186.26/images/6_3.jpg","x":362,"y":91},{"src":"http://34.125.186.26/images/6_4.jpg","x":524,"y":91}],"moves":[],"final_locations":[{}],"stars_time":[5697],"end_time":[5896.80000000447],"rt":199.80000000447035,"trial_type":"order","trial_index":10,"time_elapsed":3898,"internal_node_id":"0.0-10.0","subject":1688450644039,"condition":"conditionC"},{"init_locations":[{"src":"http://34.125.186.26/images/6_5.jpg","x":40,"y":91},{"src":"http://34.125.186.26/images/6_6.jpg","x":201,"y":91},{"src":"http://34.125.186.26/images/6_7.jpg","x":362,"y":91},{"src":"http://34.125.186.26/images/6_8.jpg","x":524,"y":91}],"moves":[],"final_locations":[{}],"stars_time":[5897.5],"end_time":[6080.60000000149],"rt":183.10000000149012,"trial_type":"order","trial_index":11,"time_elapsed":4083,"internal_node_id":"0.0-11.0","subject":1688450644039,"condition":"conditionC"},{"init_locations":[{"src":"http://34.125.186.26/images/7_1.jpg","x":40,"y":91},{"src":"http://34.125.186.26/images/7_2.jpg","x":201,"y":91},{"src":"http://34.125.186.26/images/7_3.jpg","x":362,"y":91},{"src":"http://34.125.186.26/images/7_4.jpg","x":524,"y":91}],"moves":[],"final_locations":[{}],"stars_time":[6082.30000000447],"end_time":[6272.10000000149],"rt":189.79999999701977,"trial_type":"order","trial_index":12,"time_elapsed":4273,"internal_node_id":"0.0-12.0","subject":1688450644039,"condition":"conditionC"},{"init_locations":[{"src":"http://34.125.186.26/images/7_5.jpg","x":40,"y":91},{"src":"http://34.125.186.26/images/7_6.jpg","x":201,"y":91},{"src":"http://34.125.186.26/images/7_7.jpg","x":362,"y":91},{"src":"http://34.125.186.26/images/7_8.jpg","x":524,"y":91}],"moves":[],"final_locations":[{}],"stars_time":[6272.60000000149],"end_time":[6484.30000000447],"rt":211.70000000298023,"trial_type":"order","trial_index":13,"time_elapsed":4485,"internal_node_id":"0.0-13.0","subject":1688450644039,"condition":"conditionC"},{"init_locations":[{"src":"http://34.125.186.26/images/8_1.jpg","x":40,"y":91},{"src":"http://34.125.186.26/images/8_2.jpg","x":201,"y":91},{"src":"http://34.125.186.26/images/8_3.jpg","x":362,"y":91},{"src":"http://34.125.186.26/images/8_4.jpg","x":524,"y":91}],"moves":[],"final_locations":[{}],"stars_time":[6484.89999999851],"end_time":[6676.70000000298],"rt":191.80000000447035,"trial_type":"order","trial_index":14,"time_elapsed":4678,"internal_node_id":"0.0-14.0","subject":1688450644039,"condition":"conditionC"},{"init_locations":[{"src":"http://34.125.186.26/images/8_5.jpg","x":40,"y":91},{"src":"http://34.125.186.26/images/8_6.jpg","x":201,"y":91},{"src":"http://34.125.186.26/images/8_7.jpg","x":362,"y":91},{"src":"http://34.125.186.26/images/8_8.jpg","x":524,"y":91}],"moves":[],"final_locations":[{}],"stars_time":[6677.39999999851],"end_time":[6885],"rt":207.60000000149012,"trial_type":"order","trial_index":15,"time_elapsed":4886,"internal_node_id":"0.0-15.0","subject":1688450644039,"condition":"conditionC"},{"init_locations":[{"src":"http://34.125.186.26/images/9_1.jpg","x":40,"y":91},{"src":"http://34.125.186.26/images/9_2.jpg","x":201,"y":91},{"src":"http://34.125.186.26/images/9_3.jpg","x":362,"y":91},{"src":"http://34.125.186.26/images/9_4.jpg","x":524,"y":91}],"moves":[],"final_locations":[{}],"stars_time":[6885.80000000447],"end_time":[8400.5],"rt":1514.6999999955297,"trial_type":"order","trial_index":16,"time_elapsed":6402,"internal_node_id":"0.0-16.0","subject":1688450644039,"condition":"conditionC"},{"init_locations":[{"src":"http://34.125.186.26/images/9_5.jpg","x":40,"y":91},{"src":"http://34.125.186.26/images/9_6.jpg","x":201,"y":91},{"src":"http://34.125.186.26/images/9_7.jpg","x":362,"y":91},{"src":"http://34.125.186.26/images/9_8.jpg","x":524,"y":91}],"moves":[],"final_locations":[{}],"stars_time":[8401.20000000298],"end_time":[8856.5],"rt":455.29999999701977,"trial_type":"order","trial_index":17,"time_elapsed":6858,"internal_node_id":"0.0-17.0","subject":1688450644039,"condition":"conditionC"},{"rt":1355.3000000044703,"stimulus":"<p>How difficult was it to order the pictures?</p>","button_pressed":"2","trial_type":"html-button-response","trial_index":18,"time_elapsed":8215,"internal_node_id":"0.0-18.0","subject":1688450644039,"condition":"conditionC"}]