[{"init_locations":[{"src":"http://127.0.0.1:5501/images/1_1.jpg","x":290,"y":87},{"src":"http://127.0.0.1:5501/images/1_2.jpg","x":451,"y":87},{"src":"http://127.0.0.1:5501/images/1_3.jpg","x":612,"y":87},{"src":"http://127.0.0.1:5501/images/1_4.jpg","x":774,"y":87}],"moves":[{"src":"http://127.0.0.1:5501/images/1_1.jpg","x":290,"y":325,"move_time":195588.1000000015},{"src":"http://127.0.0.1:5501/images/1_1.jpg","x":451,"y":325,"move_time":974.3999999985099},{"src":"http://127.0.0.1:5501/images/1_1.jpg","x":612,"y":325,"move_time":846.5},{"src":"http://127.0.0.1:5501/images/1_1.jpg","x":774,"y":325,"move_time":868.9000000059605}],"final_locations":[{"final":{"src":"http://127.0.0.1:5501/images/1_1.jpg","x":774,"y":325,"move_time":868.9000000059605}}],"stars_time":[845],"end_time":[200380.1000000015],"rt":199535.1000000015,"trial_type":"order","trial_index":0,"time_elapsed":199571,"internal_node_id":"0.0-0.0","subject":1688281147595,"condition":"conditionC"},{"init_locations":[{"src":"http://127.0.0.1:5501/images/1_5.jpg","x":290,"y":76},{"src":"http://127.0.0.1:5501/images/1_6.jpg","x":451,"y":76},{"src":"http://127.0.0.1:5501/images/1_7.jpg","x":612,"y":76},{"src":"http://127.0.0.1:5501/images/1_8.jpg","x":774,"y":76}],"moves":[],"final_locations":[{}],"stars_time":[200381.30000000447],"end_time":[201631.5],"rt":1250.1999999955297,"trial_type":"order","trial_index":1,"time_elapsed":200822,"internal_node_id":"0.0-1.0","subject":1688281147595,"condition":"conditionC"},{"init_locations":[{"src":"http://127.0.0.1:5501/images/2_1.jpg","x":290,"y":76},{"src":"http://127.0.0.1:5501/images/2_2.jpg","x":451,"y":76},{"src":"http://127.0.0.1:5501/images/2_3.jpg","x":612,"y":76},{"src":"http://127.0.0.1:5501/images/2_4.jpg","x":774,"y":76}],"moves":[{"src":"http://127.0.0.1:5501/images/2_1.jpg","x":290,"y":325,"move_time":1146.7000000029802},{"src":"http://127.0.0.1:5501/images/2_2.jpg","x":451,"y":325,"move_time":1089.2999999970198},{"src":"http://127.0.0.1:5501/images/2_3.jpg","x":612,"y":325,"move_time":960.6000000014901},{"src":"http://127.0.0.1:5501/images/2_4.jpg","x":774,"y":325,"move_time":911}],"final_locations":[{"final":{"src":"http://127.0.0.1:5501/images/2_4.jpg","x":774,"y":325,"move_time":911}}],"stars_time":[201632.1000000015],"end_time":[206695.5],"rt":5063.39999999851,"trial_type":"order","trial_index":2,"time_elapsed":205886,"internal_node_id":"0.0-2.0","subject":1688281147595,"condition":"conditionC"},{"init_locations":[{"src":"http://127.0.0.1:5501/images/2_5.jpg","x":290,"y":76},{"src":"http://127.0.0.1:5501/images/2_6.jpg","x":451,"y":76},{"src":"http://127.0.0.1:5501/images/2_7.jpg","x":612,"y":76},{"src":"http://127.0.0.1:5501/images/2_8.jpg","x":774,"y":76}],"moves":[],"final_locations":[{}],"stars_time":[206696.40000000596],"end_time":[206903.90000000596],"rt":207.5,"trial_type":"order","trial_index":3,"time_elapsed":206095,"internal_node_id":"0.0-3.0","subject":1688281147595,"condition":"conditionC"},{"init_locations":[{"src":"http://127.0.0.1:5501/images/3_1.jpg","x":290,"y":76},{"src":"http://127.0.0.1:5501/images/3_2.jpg","x":451,"y":76},{"src":"http://127.0.0.1:5501/images/3_3.jpg","x":612,"y":76},{"src":"http://127.0.0.1:5501/images/3_4.jpg","x":774,"y":76}],"moves":[],"final_locations":[{}],"stars_time":[206904.70000000298],"end_time":[207110.90000000596],"rt":206.20000000298023,"trial_type":"order","trial_index":4,"time_elapsed":206302,"internal_node_id":"0.0-4.0","subject":1688281147595,"condition":"conditionC"},{"init_locations":[{"src":"http://127.0.0.1:5501/images/3_5.jpg","x":290,"y":76},{"src":"http://127.0.0.1:5501/images/3_6.jpg","x":451,"y":76},{"src":"http://127.0.0.1:5501/images/3_7.jpg","x":612,"y":76},{"src":"http://127.0.0.1:5501/images/3_8.jpg","x":774,"y":76}],"moves":[],"final_locations":[{}],"stars_time":[207111.6000000015],"end_time":[207319.40000000596],"rt":207.80000000447035,"trial_type":"order","trial_index":5,"time_elapsed":206510,"internal_node_id":"0.0-5.0","subject":1688281147595,"condition":"conditionC"},{"init_locations":[{"src":"http://127.0.0.1:5501/images/4_1.jpg","x":290,"y":76},{"src":"http://127.0.0.1:5501/images/4_2.jpg","x":451,"y":76},{"src":"http://127.0.0.1:5501/images/4_3.jpg","x":612,"y":76},{"src":"http://127.0.0.1:5501/images/4_4.jpg","x":774,"y":76}],"moves":[],"final_locations":[{}],"stars_time":[207320.30000000447],"end_time":[207543.6000000015],"rt":223.29999999701977,"trial_type":"order","trial_index":6,"time_elapsed":206734,"internal_node_id":"0.0-6.0","subject":1688281147595,"condition":"conditionC"},{"init_locations":[{"src":"http://127.0.0.1:5501/images/4_5.jpg","x":290,"y":76},{"src":"http://127.0.0.1:5501/images/4_6.jpg","x":451,"y":76},{"src":"http://127.0.0.1:5501/images/4_7.jpg","x":612,"y":76},{"src":"http://127.0.0.1:5501/images/4_8.jpg","x":774,"y":76}],"moves":[],"final_locations":[{}],"stars_time":[207544.6000000015],"end_time":[207767.5],"rt":222.89999999850988,"trial_type":"order","trial_index":7,"time_elapsed":206958,"internal_node_id":"0.0-7.0","subject":1688281147595,"condition":"conditionC"},{"init_locations":[{"src":"http://127.0.0.1:5501/images/5_1.jpg","x":290,"y":76},{"src":"http://127.0.0.1:5501/images/5_2.jpg","x":451,"y":76},{"src":"http://127.0.0.1:5501/images/5_3.jpg","x":612,"y":76},{"src":"http://127.0.0.1:5501/images/5_4.jpg","x":774,"y":76}],"moves":[],"final_locations":[{}],"stars_time":[207768.30000000447],"end_time":[207975.5],"rt":207.19999999552965,"trial_type":"order","trial_index":8,"time_elapsed":207166,"internal_node_id":"0.0-8.0","subject":1688281147595,"condition":"conditionC"},{"init_locations":[{"src":"http://127.0.0.1:5501/images/5_5.jpg","x":290,"y":76},{"src":"http://127.0.0.1:5501/images/5_6.jpg","x":451,"y":76},{"src":"http://127.0.0.1:5501/images/5_7.jpg","x":612,"y":76},{"src":"http://127.0.0.1:5501/images/5_8.jpg","x":774,"y":76}],"moves":[],"final_locations":[{}],"stars_time":[207976.40000000596],"end_time":[208199.5],"rt":223.09999999403954,"trial_type":"order","trial_index":9,"time_elapsed":207390,"internal_node_id":"0.0-9.0","subject":1688281147595,"condition":"conditionC"},{"init_locations":[{"src":"http://127.0.0.1:5501/images/6_1.jpg","x":290,"y":76},{"src":"http://127.0.0.1:5501/images/6_2.jpg","x":451,"y":76},{"src":"http://127.0.0.1:5501/images/6_3.jpg","x":612,"y":76},{"src":"http://127.0.0.1:5501/images/6_4.jpg","x":774,"y":76}],"moves":[],"final_locations":[{}],"stars_time":[208200.30000000447],"end_time":[208407.5],"rt":207.19999999552965,"trial_type":"order","trial_index":10,"time_elapsed":207598,"internal_node_id":"0.0-10.0","subject":1688281147595,"condition":"conditionC"},{"init_locations":[{"src":"http://127.0.0.1:5501/images/6_5.jpg","x":290,"y":76},{"src":"http://127.0.0.1:5501/images/6_6.jpg","x":451,"y":76},{"src":"http://127.0.0.1:5501/images/6_7.jpg","x":612,"y":76},{"src":"http://127.0.0.1:5501/images/6_8.jpg","x":774,"y":76}],"moves":[],"final_locations":[{}],"stars_time":[208408.40000000596],"end_time":[208615.6000000015],"rt":207.19999999552965,"trial_type":"order","trial_index":11,"time_elapsed":207806,"internal_node_id":"0.0-11.0","subject":1688281147595,"condition":"conditionC"},{"init_locations":[{"src":"http://127.0.0.1:5501/images/7_1.jpg","x":290,"y":76},{"src":"http://127.0.0.1:5501/images/7_2.jpg","x":451,"y":76},{"src":"http://127.0.0.1:5501/images/7_3.jpg","x":612,"y":76},{"src":"http://127.0.0.1:5501/images/7_4.jpg","x":774,"y":76}],"moves":[],"final_locations":[{}],"stars_time":[208616.5],"end_time":[208839.30000000447],"rt":222.80000000447035,"trial_type":"order","trial_index":12,"time_elapsed":208030,"internal_node_id":"0.0-12.0","subject":1688281147595,"condition":"conditionC"},{"init_locations":[{"src":"http://127.0.0.1:5501/images/7_5.jpg","x":290,"y":76},{"src":"http://127.0.0.1:5501/images/7_6.jpg","x":451,"y":76},{"src":"http://127.0.0.1:5501/images/7_7.jpg","x":612,"y":76},{"src":"http://127.0.0.1:5501/images/7_8.jpg","x":774,"y":76}],"moves":[],"final_locations":[{}],"stars_time":[208840],"end_time":[209063.6000000015],"rt":223.60000000149012,"trial_type":"order","trial_index":13,"time_elapsed":208254,"internal_node_id":"0.0-13.0","subject":1688281147595,"condition":"conditionC"},{"init_locations":[{"src":"http://127.0.0.1:5501/images/8_1.jpg","x":290,"y":76},{"src":"http://127.0.0.1:5501/images/8_2.jpg","x":451,"y":76},{"src":"http://127.0.0.1:5501/images/8_3.jpg","x":612,"y":76},{"src":"http://127.0.0.1:5501/images/8_4.jpg","x":774,"y":76}],"moves":[],"final_locations":[{}],"stars_time":[209064.40000000596],"end_time":[209287.5],"rt":223.09999999403954,"trial_type":"order","trial_index":14,"time_elapsed":208479,"internal_node_id":"0.0-14.0","subject":1688281147595,"condition":"conditionC"},{"init_locations":[{"src":"http://127.0.0.1:5501/images/8_5.jpg","x":290,"y":76},{"src":"http://127.0.0.1:5501/images/8_6.jpg","x":451,"y":76},{"src":"http://127.0.0.1:5501/images/8_7.jpg","x":612,"y":76},{"src":"http://127.0.0.1:5501/images/8_8.jpg","x":774,"y":76}],"moves":[],"final_locations":[{}],"stars_time":[209288.90000000596],"end_time":[209527.5],"rt":238.59999999403954,"trial_type":"order","trial_index":15,"time_elapsed":208718,"internal_node_id":"0.0-15.0","subject":1688281147595,"condition":"conditionC"},{"init_locations":[{"src":"http://127.0.0.1:5501/images/9_1.jpg","x":290,"y":76},{"src":"http://127.0.0.1:5501/images/9_2.jpg","x":451,"y":76},{"src":"http://127.0.0.1:5501/images/9_3.jpg","x":612,"y":76},{"src":"http://127.0.0.1:5501/images/9_4.jpg","x":774,"y":76}],"moves":[],"final_locations":[{}],"stars_time":[209528.90000000596],"end_time":[209755.40000000596],"rt":226.5,"trial_type":"order","trial_index":16,"time_elapsed":208946,"internal_node_id":"0.0-16.0","subject":1688281147595,"condition":"conditionC"},{"init_locations":[{"src":"http://127.0.0.1:5501/images/9_5.jpg","x":290,"y":76},{"src":"http://127.0.0.1:5501/images/9_6.jpg","x":451,"y":76},{"src":"http://127.0.0.1:5501/images/9_7.jpg","x":612,"y":76},{"src":"http://127.0.0.1:5501/images/9_8.jpg","x":774,"y":76}],"moves":[],"final_locations":[{}],"stars_time":[209756.40000000596],"end_time":[209963.5],"rt":207.09999999403954,"trial_type":"order","trial_index":17,"time_elapsed":209154,"internal_node_id":"0.0-17.0","subject":1688281147595,"condition":"conditionC"},{"rt":1126.7999999970198,"button_pressed":"2","trial_type":"html-button-response","trial_index":18,"time_elapsed":210283,"internal_node_id":"0.0-18.0","subject":1688281147595,"condition":"conditionC"}]