[{"init_locations":[{"src":"http://34.125.186.26/images/1_1.jpg","x":40,"y":103},{"src":"http://34.125.186.26/images/1_2.jpg","x":201,"y":103},{"src":"http://34.125.186.26/images/1_3.jpg","x":362,"y":103},{"src":"http://34.125.186.26/images/1_4.jpg","x":524,"y":103}],"moves":[{"src":"http://34.125.186.26/images/1_3.jpg","x":362,"y":341,"move_time":1970.3999999985099}],"final_locations":[{"final":{"src":"http://34.125.186.26/images/1_3.jpg","x":362,"y":341,"move_time":1970.3999999985099}}],"stars_time":[739.5],"end_time":[5396.5],"rt":4657,"trial_type":"order","trial_index":0,"time_elapsed":4659,"internal_node_id":"0.0-0.0","subject":1688447615467,"condition":"conditionB"},{"init_locations":[{"src":"http://34.125.186.26/images/1_5.jpg","x":40,"y":91},{"src":"http://34.125.186.26/images/1_6.jpg","x":201,"y":91},{"src":"http://34.125.186.26/images/1_7.jpg","x":362,"y":91},{"src":"http://34.125.186.26/images/1_8.jpg","x":524,"y":91}],"moves":[],"final_locations":[{}],"stars_time":[5398.29999999702],"end_time":[5620.29999999702],"rt":222,"trial_type":"order","trial_index":1,"time_elapsed":4883,"internal_node_id":"0.0-1.0","subject":1688447615467,"condition":"conditionB"},{"init_locations":[{"src":"http://34.125.186.26/images/2_1.jpg","x":40,"y":91},{"src":"http://34.125.186.26/images/2_2.jpg","x":201,"y":91},{"src":"http://34.125.186.26/images/2_3.jpg","x":362,"y":91},{"src":"http://34.125.186.26/images/2_4.jpg","x":524,"y":91}],"moves":[],"final_locations":[{}],"stars_time":[5621.10000000149],"end_time":[5844.29999999702],"rt":223.19999999552965,"trial_type":"order","trial_index":2,"time_elapsed":5106,"internal_node_id":"0.0-2.0","subject":1688447615467,"condition":"conditionB"},{"init_locations":[{"src":"http://34.125.186.26/images/2_5.jpg","x":40,"y":91},{"src":"http://34.125.186.26/images/2_6.jpg","x":201,"y":91},{"src":"http://34.125.186.26/images/2_7.jpg","x":362,"y":91},{"src":"http://34.125.186.26/images/2_8.jpg","x":524,"y":91}],"moves":[],"final_locations":[{}],"stars_time":[5845.19999999553],"end_time":[6052.19999999553],"rt":207,"trial_type":"order","trial_index":3,"time_elapsed":5315,"internal_node_id":"0.0-3.0","subject":1688447615467,"condition":"conditionB"},{"init_locations":[{"src":"http://34.125.186.26/images/3_1.jpg","x":40,"y":91},{"src":"http://34.125.186.26/images/3_2.jpg","x":201,"y":91},{"src":"http://34.125.186.26/images/3_3.jpg","x":362,"y":91},{"src":"http://34.125.186.26/images/3_4.jpg","x":524,"y":91}],"moves":[],"final_locations":[{}],"stars_time":[6053.19999999553],"end_time":[6276.19999999553],"rt":223,"trial_type":"order","trial_index":4,"time_elapsed":5538,"internal_node_id":"0.0-4.0","subject":1688447615467,"condition":"conditionB"},{"init_locations":[{"src":"http://34.125.186.26/images/3_5.jpg","x":40,"y":91},{"src":"http://34.125.186.26/images/3_6.jpg","x":201,"y":91},{"src":"http://34.125.186.26/images/3_7.jpg","x":362,"y":91},{"src":"http://34.125.186.26/images/3_8.jpg","x":524,"y":91}],"moves":[],"final_locations":[{}],"stars_time":[6277.19999999553],"end_time":[6628.10000000149],"rt":350.90000000596046,"trial_type":"order","trial_index":5,"time_elapsed":5890,"internal_node_id":"0.0-5.0","subject":1688447615467,"condition":"conditionB"},{"init_locations":[{"src":"http://34.125.186.26/images/4_1.jpg","x":40,"y":91},{"src":"http://34.125.186.26/images/4_2.jpg","x":201,"y":91},{"src":"http://34.125.186.26/images/4_3.jpg","x":362,"y":91},{"src":"http://34.125.186.26/images/4_4.jpg","x":524,"y":91}],"moves":[],"final_locations":[{}],"stars_time":[6629],"end_time":[6996.29999999702],"rt":367.29999999701977,"trial_type":"order","trial_index":6,"time_elapsed":6259,"internal_node_id":"0.0-6.0","subject":1688447615467,"condition":"conditionB"},{"init_locations":[{"src":"http://34.125.186.26/images/4_5.jpg","x":40,"y":91},{"src":"http://34.125.186.26/images/4_6.jpg","x":201,"y":91},{"src":"http://34.125.186.26/images/4_7.jpg","x":362,"y":91},{"src":"http://34.125.186.26/images/4_8.jpg","x":524,"y":91}],"moves":[],"final_locations":[{}],"stars_time":[6997.10000000149],"end_time":[7252.19999999553],"rt":255.09999999403954,"trial_type":"order","trial_index":7,"time_elapsed":6514,"internal_node_id":"0.0-7.0","subject":1688447615467,"condition":"conditionB"},{"init_locations":[{"src":"http://34.125.186.26/images/5_1.jpg","x":40,"y":91},{"src":"http://34.125.186.26/images/5_2.jpg","x":201,"y":91},{"src":"http://34.125.186.26/images/5_3.jpg","x":362,"y":91},{"src":"http://34.125.186.26/images/5_4.jpg","x":524,"y":91}],"moves":[],"final_locations":[{}],"stars_time":[7253.19999999553],"end_time":[7476.10000000149],"rt":222.90000000596046,"trial_type":"order","trial_index":8,"time_elapsed":6738,"internal_node_id":"0.0-8.0","subject":1688447615467,"condition":"conditionB"},{"init_locations":[{"src":"http://34.125.186.26/images/5_5.jpg","x":40,"y":91},{"src":"http://34.125.186.26/images/5_6.jpg","x":201,"y":91},{"src":"http://34.125.186.26/images/5_7.jpg","x":362,"y":91},{"src":"http://34.125.186.26/images/5_8.jpg","x":524,"y":91}],"moves":[],"final_locations":[{}],"stars_time":[7477.10000000149],"end_time":[7684.69999999553],"rt":207.59999999403954,"trial_type":"order","trial_index":9,"time_elapsed":6947,"internal_node_id":"0.0-9.0","subject":1688447615467,"condition":"conditionB"},{"init_locations":[{"src":"http://34.125.186.26/images/6_1.jpg","x":40,"y":91},{"src":"http://34.125.186.26/images/6_2.jpg","x":201,"y":91},{"src":"http://34.125.186.26/images/6_3.jpg","x":362,"y":91},{"src":"http://34.125.186.26/images/6_4.jpg","x":524,"y":91}],"moves":[],"final_locations":[{}],"stars_time":[7685.60000000149],"end_time":[7892.29999999702],"rt":206.69999999552965,"trial_type":"order","trial_index":10,"time_elapsed":7155,"internal_node_id":"0.0-10.0","subject":1688447615467,"condition":"conditionB"},{"init_locations":[{"src":"http://34.125.186.26/images/6_5.jpg","x":40,"y":91},{"src":"http://34.125.186.26/images/6_6.jpg","x":201,"y":91},{"src":"http://34.125.186.26/images/6_7.jpg","x":362,"y":91},{"src":"http://34.125.186.26/images/6_8.jpg","x":524,"y":91}],"moves":[],"final_locations":[{}],"stars_time":[7893],"end_time":[8120.10000000149],"rt":227.10000000149012,"trial_type":"order","trial_index":11,"time_elapsed":7382,"internal_node_id":"0.0-11.0","subject":1688447615467,"condition":"conditionB"},{"init_locations":[{"src":"http://34.125.186.26/images/7_1.jpg","x":40,"y":91},{"src":"http://34.125.186.26/images/7_2.jpg","x":201,"y":91},{"src":"http://34.125.186.26/images/7_3.jpg","x":362,"y":91},{"src":"http://34.125.186.26/images/7_4.jpg","x":524,"y":91}],"moves":[],"final_locations":[{}],"stars_time":[8120.79999999702],"end_time":[8360.5],"rt":239.70000000298023,"trial_type":"order","trial_index":12,"time_elapsed":7623,"internal_node_id":"0.0-12.0","subject":1688447615467,"condition":"conditionB"},{"init_locations":[{"src":"http://34.125.186.26/images/7_5.jpg","x":40,"y":91},{"src":"http://34.125.186.26/images/7_6.jpg","x":201,"y":91},{"src":"http://34.125.186.26/images/7_7.jpg","x":362,"y":91},{"src":"http://34.125.186.26/images/7_8.jpg","x":524,"y":91}],"moves":[],"final_locations":[{}],"stars_time":[8361.19999999553],"end_time":[8568.10000000149],"rt":206.90000000596046,"trial_type":"order","trial_index":13,"time_elapsed":7830,"internal_node_id":"0.0-13.0","subject":1688447615467,"condition":"conditionB"},{"init_locations":[{"src":"http://34.125.186.26/images/8_1.jpg","x":40,"y":91},{"src":"http://34.125.186.26/images/8_2.jpg","x":201,"y":91},{"src":"http://34.125.186.26/images/8_3.jpg","x":362,"y":91},{"src":"http://34.125.186.26/images/8_4.jpg","x":524,"y":91}],"moves":[],"final_locations":[{}],"stars_time":[8568.79999999702],"end_time":[8808.29999999702],"rt":239.5,"trial_type":"order","trial_index":14,"time_elapsed":8071,"internal_node_id":"0.0-14.0","subject":1688447615467,"condition":"conditionB"},{"init_locations":[{"src":"http://34.125.186.26/images/8_5.jpg","x":40,"y":91},{"src":"http://34.125.186.26/images/8_6.jpg","x":201,"y":91},{"src":"http://34.125.186.26/images/8_7.jpg","x":362,"y":91},{"src":"http://34.125.186.26/images/8_8.jpg","x":524,"y":91}],"moves":[],"final_locations":[{}],"stars_time":[8809.29999999702],"end_time":[9032.19999999553],"rt":222.89999999850988,"trial_type":"order","trial_index":15,"time_elapsed":8294,"internal_node_id":"0.0-15.0","subject":1688447615467,"condition":"conditionB"},{"init_locations":[{"src":"http://34.125.186.26/images/9_1.jpg","x":40,"y":91},{"src":"http://34.125.186.26/images/9_2.jpg","x":201,"y":91},{"src":"http://34.125.186.26/images/9_3.jpg","x":362,"y":91},{"src":"http://34.125.186.26/images/9_4.jpg","x":524,"y":91}],"moves":[],"final_locations":[{}],"stars_time":[9032.89999999851],"end_time":[9240.10000000149],"rt":207.20000000298023,"trial_type":"order","trial_index":16,"time_elapsed":8502,"internal_node_id":"0.0-16.0","subject":1688447615467,"condition":"conditionB"},{"init_locations":[{"src":"http://34.125.186.26/images/9_5.jpg","x":40,"y":91},{"src":"http://34.125.186.26/images/9_6.jpg","x":201,"y":91},{"src":"http://34.125.186.26/images/9_7.jpg","x":362,"y":91},{"src":"http://34.125.186.26/images/9_8.jpg","x":524,"y":91}],"moves":[],"final_locations":[{}],"stars_time":[9241],"end_time":[9464.10000000149],"rt":223.10000000149012,"trial_type":"order","trial_index":17,"time_elapsed":8726,"internal_node_id":"0.0-17.0","subject":1688447615467,"condition":"conditionB"},{"rt":1487,"stimulus":"<p>How difficult was it to order the pictures?</p>","button_pressed":"2","trial_type":"html-button-response","trial_index":18,"time_elapsed":10215,"internal_node_id":"0.0-18.0","subject":1688447615467,"condition":"conditionB"}]