[{"init_locations":[{"src":"http://localhost:8000/images/1_1.jpg","x":40,"y":87},{"src":"http://localhost:8000/images/1_2.jpg","x":201,"y":87},{"src":"http://localhost:8000/images/1_3.jpg","x":362,"y":87},{"src":"http://localhost:8000/images/1_4.jpg","x":524,"y":87}],"moves":[{"src":"http://localhost:8000/images/1_3.jpg","x":362,"y":325,"move_time":1684.5999999940395},{"src":"http://localhost:8000/images/1_2.jpg","x":201,"y":325,"move_time":1279.2000000029802}],"final_locations":[{"final":{"src":"http://localhost:8000/images/1_2.jpg","x":201,"y":325,"move_time":1279.2000000029802}}],"stars_time":[288.1000000089407],"end_time":[4414.800000011921],"rt":4126.70000000298,"trial_type":"order","trial_index":0,"time_elapsed":4133,"internal_node_id":"0.0-0.0","subject":1688315472753,"condition":"conditionB"},{"init_locations":[{"src":"http://localhost:8000/images/1_5.jpg","x":40,"y":76},{"src":"http://localhost:8000/images/1_6.jpg","x":201,"y":76},{"src":"http://localhost:8000/images/1_7.jpg","x":362,"y":76},{"src":"http://localhost:8000/images/1_8.jpg","x":524,"y":76}],"moves":[],"final_locations":[{}],"stars_time":[4416.70000000298],"end_time":[4620.300000011921],"rt":203.6000000089407,"trial_type":"order","trial_index":1,"time_elapsed":4337,"internal_node_id":"0.0-1.0","subject":1688315472753,"condition":"conditionB"},{"init_locations":[{"src":"http://localhost:8000/images/2_1.jpg","x":40,"y":76},{"src":"http://localhost:8000/images/2_2.jpg","x":201,"y":76},{"src":"http://localhost:8000/images/2_3.jpg","x":362,"y":76},{"src":"http://localhost:8000/images/2_4.jpg","x":524,"y":76}],"moves":[],"final_locations":[{}],"stars_time":[4621.300000011921],"end_time":[4828],"rt":206.69999998807907,"trial_type":"order","trial_index":2,"time_elapsed":4545,"internal_node_id":"0.0-2.0","subject":1688315472753,"condition":"conditionB"},{"init_locations":[{"src":"http://localhost:8000/images/2_5.jpg","x":40,"y":76},{"src":"http://localhost:8000/images/2_6.jpg","x":201,"y":76},{"src":"http://localhost:8000/images/2_7.jpg","x":362,"y":76},{"src":"http://localhost:8000/images/2_8.jpg","x":524,"y":76}],"moves":[],"final_locations":[{}],"stars_time":[4828.800000011921],"end_time":[5068.70000000298],"rt":239.8999999910593,"trial_type":"order","trial_index":3,"time_elapsed":4786,"internal_node_id":"0.0-3.0","subject":1688315472753,"condition":"conditionB"},{"init_locations":[{"src":"http://localhost:8000/images/3_1.jpg","x":40,"y":76},{"src":"http://localhost:8000/images/3_2.jpg","x":201,"y":76},{"src":"http://localhost:8000/images/3_3.jpg","x":362,"y":76},{"src":"http://localhost:8000/images/3_4.jpg","x":524,"y":76}],"moves":[],"final_locations":[{}],"stars_time":[5069.600000008941],"end_time":[5276],"rt":206.3999999910593,"trial_type":"order","trial_index":4,"time_elapsed":4993,"internal_node_id":"0.0-4.0","subject":1688315472753,"condition":"conditionB"},{"init_locations":[{"src":"http://localhost:8000/images/3_5.jpg","x":40,"y":76},{"src":"http://localhost:8000/images/3_6.jpg","x":201,"y":76},{"src":"http://localhost:8000/images/3_7.jpg","x":362,"y":76},{"src":"http://localhost:8000/images/3_8.jpg","x":524,"y":76}],"moves":[],"final_locations":[{}],"stars_time":[5276.70000000298],"end_time":[5520.4000000059605],"rt":243.70000000298023,"trial_type":"order","trial_index":5,"time_elapsed":5237,"internal_node_id":"0.0-5.0","subject":1688315472753,"condition":"conditionB"},{"init_locations":[{"src":"http://localhost:8000/images/4_1.jpg","x":40,"y":76},{"src":"http://localhost:8000/images/4_2.jpg","x":201,"y":76},{"src":"http://localhost:8000/images/4_3.jpg","x":362,"y":76},{"src":"http://localhost:8000/images/4_4.jpg","x":524,"y":76}],"moves":[],"final_locations":[{}],"stars_time":[5521.300000011921],"end_time":[5744.5],"rt":223.19999998807907,"trial_type":"order","trial_index":6,"time_elapsed":5462,"internal_node_id":"0.0-6.0","subject":1688315472753,"condition":"conditionB"},{"init_locations":[{"src":"http://localhost:8000/images/4_5.jpg","x":40,"y":76},{"src":"http://localhost:8000/images/4_6.jpg","x":201,"y":76},{"src":"http://localhost:8000/images/4_7.jpg","x":362,"y":76},{"src":"http://localhost:8000/images/4_8.jpg","x":524,"y":76}],"moves":[],"final_locations":[{}],"stars_time":[5745.300000011921],"end_time":[5968.600000008941],"rt":223.29999999701977,"trial_type":"order","trial_index":7,"time_elapsed":5686,"internal_node_id":"0.0-7.0","subject":1688315472753,"condition":"conditionB"},{"init_locations":[{"src":"http://localhost:8000/images/5_1.jpg","x":40,"y":76},{"src":"http://localhost:8000/images/5_2.jpg","x":201,"y":76},{"src":"http://localhost:8000/images/5_3.jpg","x":362,"y":76},{"src":"http://localhost:8000/images/5_4.jpg","x":524,"y":76}],"moves":[],"final_locations":[{}],"stars_time":[5969.300000011921],"end_time":[6192.5],"rt":223.19999998807907,"trial_type":"order","trial_index":8,"time_elapsed":5910,"internal_node_id":"0.0-8.0","subject":1688315472753,"condition":"conditionB"},{"init_locations":[{"src":"http://localhost:8000/images/5_5.jpg","x":40,"y":76},{"src":"http://localhost:8000/images/5_6.jpg","x":201,"y":76},{"src":"http://localhost:8000/images/5_7.jpg","x":362,"y":76},{"src":"http://localhost:8000/images/5_8.jpg","x":524,"y":76}],"moves":[],"final_locations":[{}],"stars_time":[6193.5],"end_time":[6416.4000000059605],"rt":222.90000000596046,"trial_type":"order","trial_index":9,"time_elapsed":6133,"internal_node_id":"0.0-9.0","subject":1688315472753,"condition":"conditionB"},{"init_locations":[{"src":"http://localhost:8000/images/6_1.jpg","x":40,"y":76},{"src":"http://localhost:8000/images/6_2.jpg","x":201,"y":76},{"src":"http://localhost:8000/images/6_3.jpg","x":362,"y":76},{"src":"http://localhost:8000/images/6_4.jpg","x":524,"y":76}],"moves":[],"final_locations":[{}],"stars_time":[6417],"end_time":[6656.20000000298],"rt":239.20000000298023,"trial_type":"order","trial_index":10,"time_elapsed":6373,"internal_node_id":"0.0-10.0","subject":1688315472753,"condition":"conditionB"},{"init_locations":[{"src":"http://localhost:8000/images/6_5.jpg","x":40,"y":76},{"src":"http://localhost:8000/images/6_6.jpg","x":201,"y":76},{"src":"http://localhost:8000/images/6_7.jpg","x":362,"y":76},{"src":"http://localhost:8000/images/6_8.jpg","x":524,"y":76}],"moves":[],"final_locations":[{}],"stars_time":[6656.800000011921],"end_time":[6912.300000011921],"rt":255.5,"trial_type":"order","trial_index":11,"time_elapsed":6629,"internal_node_id":"0.0-11.0","subject":1688315472753,"condition":"conditionB"},{"init_locations":[{"src":"http://localhost:8000/images/7_1.jpg","x":40,"y":76},{"src":"http://localhost:8000/images/7_2.jpg","x":201,"y":76},{"src":"http://localhost:8000/images/7_3.jpg","x":362,"y":76},{"src":"http://localhost:8000/images/7_4.jpg","x":524,"y":76}],"moves":[],"final_locations":[{}],"stars_time":[6913.20000000298],"end_time":[7136.300000011921],"rt":223.1000000089407,"trial_type":"order","trial_index":12,"time_elapsed":6853,"internal_node_id":"0.0-12.0","subject":1688315472753,"condition":"conditionB"},{"init_locations":[{"src":"http://localhost:8000/images/7_5.jpg","x":40,"y":76},{"src":"http://localhost:8000/images/7_6.jpg","x":201,"y":76},{"src":"http://localhost:8000/images/7_7.jpg","x":362,"y":76},{"src":"http://localhost:8000/images/7_8.jpg","x":524,"y":76}],"moves":[],"final_locations":[{}],"stars_time":[7137],"end_time":[7360.4000000059605],"rt":223.40000000596046,"trial_type":"order","trial_index":13,"time_elapsed":7077,"internal_node_id":"0.0-13.0","subject":1688315472753,"condition":"conditionB"},{"init_locations":[{"src":"http://localhost:8000/images/8_1.jpg","x":40,"y":76},{"src":"http://localhost:8000/images/8_2.jpg","x":201,"y":76},{"src":"http://localhost:8000/images/8_3.jpg","x":362,"y":76},{"src":"http://localhost:8000/images/8_4.jpg","x":524,"y":76}],"moves":[],"final_locations":[{}],"stars_time":[7361.100000008941],"end_time":[7568.300000011921],"rt":207.20000000298023,"trial_type":"order","trial_index":14,"time_elapsed":7285,"internal_node_id":"0.0-14.0","subject":1688315472753,"condition":"conditionB"},{"init_locations":[{"src":"http://localhost:8000/images/8_5.jpg","x":40,"y":76},{"src":"http://localhost:8000/images/8_6.jpg","x":201,"y":76},{"src":"http://localhost:8000/images/8_7.jpg","x":362,"y":76},{"src":"http://localhost:8000/images/8_8.jpg","x":524,"y":76}],"moves":[],"final_locations":[{}],"stars_time":[7568.9000000059605],"end_time":[7776.70000000298],"rt":207.79999999701977,"trial_type":"order","trial_index":15,"time_elapsed":7494,"internal_node_id":"0.0-15.0","subject":1688315472753,"condition":"conditionB"},{"init_locations":[{"src":"http://localhost:8000/images/9_1.jpg","x":40,"y":76},{"src":"http://localhost:8000/images/9_2.jpg","x":201,"y":76},{"src":"http://localhost:8000/images/9_3.jpg","x":362,"y":76},{"src":"http://localhost:8000/images/9_4.jpg","x":524,"y":76}],"moves":[],"final_locations":[{}],"stars_time":[7777.5],"end_time":[7984.600000008941],"rt":207.1000000089407,"trial_type":"order","trial_index":16,"time_elapsed":7702,"internal_node_id":"0.0-16.0","subject":1688315472753,"condition":"conditionB"},{"init_locations":[{"src":"http://localhost:8000/images/9_5.jpg","x":40,"y":76},{"src":"http://localhost:8000/images/9_6.jpg","x":201,"y":76},{"src":"http://localhost:8000/images/9_7.jpg","x":362,"y":76},{"src":"http://localhost:8000/images/9_8.jpg","x":524,"y":76}],"moves":[],"final_locations":[{}],"stars_time":[7985.70000000298],"end_time":[8192.300000011921],"rt":206.6000000089407,"trial_type":"order","trial_index":17,"time_elapsed":7909,"internal_node_id":"0.0-17.0","subject":1688315472753,"condition":"conditionB"},{"rt":1387.4000000059605,"stimulus":"<p>How difficult was it to order the pictures?</p>","button_pressed":"3","trial_type":"html-button-response","trial_index":18,"time_elapsed":9298,"internal_node_id":"0.0-18.0","subject":1688315472753,"condition":"conditionB"}]