[{"init_locations":[{"src":"http://localhost:8000/images/1_1.jpg","x":309,"y":76},{"src":"http://localhost:8000/images/1_2.jpg","x":470,"y":76},{"src":"http://localhost:8000/images/1_3.jpg","x":631,"y":76},{"src":"http://localhost:8000/images/1_4.jpg","x":793,"y":76}],"moves":[{"src":"http://localhost:8000/images/1_1.jpg","x":309,"y":314,"move_time":2374},{"src":"http://localhost:8000/images/1_2.jpg","x":631,"y":314,"move_time":932.7999999970198}],"final_locations":[{"final":{"src":"http://localhost:8000/images/1_2.jpg","x":631,"y":314,"move_time":932.7999999970198}}],"stars_time":[512.3000000044703],"end_time":[5267.9000000059605],"rt":4755.60000000149,"trial_type":"order","trial_index":0,"time_elapsed":4758,"internal_node_id":"0.0-0.0","subject":1688285508179,"condition":"conditionC"},{"init_locations":[{"src":"http://localhost:8000/images/1_5.jpg","x":309,"y":76},{"src":"http://localhost:8000/images/1_6.jpg","x":470,"y":76},{"src":"http://localhost:8000/images/1_7.jpg","x":631,"y":76},{"src":"http://localhost:8000/images/1_8.jpg","x":793,"y":76}],"moves":[],"final_locations":[{}],"stars_time":[5269.30000000447],"end_time":[5475.10000000149],"rt":205.79999999701977,"trial_type":"order","trial_index":1,"time_elapsed":4965,"internal_node_id":"0.0-1.0","subject":1688285508179,"condition":"conditionC"},{"init_locations":[{"src":"http://localhost:8000/images/2_1.jpg","x":309,"y":76},{"src":"http://localhost:8000/images/2_2.jpg","x":470,"y":76},{"src":"http://localhost:8000/images/2_3.jpg","x":631,"y":76},{"src":"http://localhost:8000/images/2_4.jpg","x":793,"y":76}],"moves":[],"final_locations":[{}],"stars_time":[5476],"end_time":[5667.4000000059605],"rt":191.40000000596046,"trial_type":"order","trial_index":2,"time_elapsed":5157,"internal_node_id":"0.0-2.0","subject":1688285508179,"condition":"conditionC"},{"init_locations":[{"src":"http://localhost:8000/images/2_5.jpg","x":309,"y":76},{"src":"http://localhost:8000/images/2_6.jpg","x":470,"y":76},{"src":"http://localhost:8000/images/2_7.jpg","x":631,"y":76},{"src":"http://localhost:8000/images/2_8.jpg","x":793,"y":76}],"moves":[],"final_locations":[{}],"stars_time":[5668.20000000298],"end_time":[5875],"rt":206.79999999701977,"trial_type":"order","trial_index":3,"time_elapsed":5365,"internal_node_id":"0.0-3.0","subject":1688285508179,"condition":"conditionC"},{"init_locations":[{"src":"http://localhost:8000/images/3_1.jpg","x":309,"y":76},{"src":"http://localhost:8000/images/3_2.jpg","x":470,"y":76},{"src":"http://localhost:8000/images/3_3.jpg","x":631,"y":76},{"src":"http://localhost:8000/images/3_4.jpg","x":793,"y":76}],"moves":[],"final_locations":[{}],"stars_time":[5875.5],"end_time":[6067],"rt":191.5,"trial_type":"order","trial_index":4,"time_elapsed":5557,"internal_node_id":"0.0-4.0","subject":1688285508179,"condition":"conditionC"},{"init_locations":[{"src":"http://localhost:8000/images/3_5.jpg","x":309,"y":76},{"src":"http://localhost:8000/images/3_6.jpg","x":470,"y":76},{"src":"http://localhost:8000/images/3_7.jpg","x":631,"y":76},{"src":"http://localhost:8000/images/3_8.jpg","x":793,"y":76}],"moves":[],"final_locations":[{}],"stars_time":[6067.5],"end_time":[6258.9000000059605],"rt":191.40000000596046,"trial_type":"order","trial_index":5,"time_elapsed":5749,"internal_node_id":"0.0-5.0","subject":1688285508179,"condition":"conditionC"},{"init_locations":[{"src":"http://localhost:8000/images/4_1.jpg","x":309,"y":76},{"src":"http://localhost:8000/images/4_2.jpg","x":470,"y":76},{"src":"http://localhost:8000/images/4_3.jpg","x":631,"y":76},{"src":"http://localhost:8000/images/4_4.jpg","x":793,"y":76}],"moves":[],"final_locations":[{}],"stars_time":[6259.80000000447],"end_time":[6467.4000000059605],"rt":207.60000000149012,"trial_type":"order","trial_index":6,"time_elapsed":5957,"internal_node_id":"0.0-6.0","subject":1688285508179,"condition":"conditionC"},{"init_locations":[{"src":"http://localhost:8000/images/4_5.jpg","x":309,"y":76},{"src":"http://localhost:8000/images/4_6.jpg","x":470,"y":76},{"src":"http://localhost:8000/images/4_7.jpg","x":631,"y":76},{"src":"http://localhost:8000/images/4_8.jpg","x":793,"y":76}],"moves":[],"final_locations":[{}],"stars_time":[6468],"end_time":[6674.80000000447],"rt":206.80000000447035,"trial_type":"order","trial_index":7,"time_elapsed":6165,"internal_node_id":"0.0-7.0","subject":1688285508179,"condition":"conditionC"},{"init_locations":[{"src":"http://localhost:8000/images/5_1.jpg","x":309,"y":76},{"src":"http://localhost:8000/images/5_2.jpg","x":470,"y":76},{"src":"http://localhost:8000/images/5_3.jpg","x":631,"y":76},{"src":"http://localhost:8000/images/5_4.jpg","x":793,"y":76}],"moves":[],"final_locations":[{}],"stars_time":[6675.4000000059605],"end_time":[6867],"rt":191.59999999403954,"trial_type":"order","trial_index":8,"time_elapsed":6357,"internal_node_id":"0.0-8.0","subject":1688285508179,"condition":"conditionC"},{"init_locations":[{"src":"http://localhost:8000/images/5_5.jpg","x":309,"y":76},{"src":"http://localhost:8000/images/5_6.jpg","x":470,"y":76},{"src":"http://localhost:8000/images/5_7.jpg","x":631,"y":76},{"src":"http://localhost:8000/images/5_8.jpg","x":793,"y":76}],"moves":[],"final_locations":[{}],"stars_time":[6867.60000000149],"end_time":[7087.10000000149],"rt":219.5,"trial_type":"order","trial_index":9,"time_elapsed":6577,"internal_node_id":"0.0-9.0","subject":1688285508179,"condition":"conditionC"},{"init_locations":[{"src":"http://localhost:8000/images/6_1.jpg","x":309,"y":76},{"src":"http://localhost:8000/images/6_2.jpg","x":470,"y":76},{"src":"http://localhost:8000/images/6_3.jpg","x":631,"y":76},{"src":"http://localhost:8000/images/6_4.jpg","x":793,"y":76}],"moves":[],"final_locations":[{}],"stars_time":[7087.80000000447],"end_time":[7295.10000000149],"rt":207.29999999701977,"trial_type":"order","trial_index":10,"time_elapsed":6785,"internal_node_id":"0.0-10.0","subject":1688285508179,"condition":"conditionC"},{"init_locations":[{"src":"http://localhost:8000/images/6_5.jpg","x":309,"y":76},{"src":"http://localhost:8000/images/6_6.jpg","x":470,"y":76},{"src":"http://localhost:8000/images/6_7.jpg","x":631,"y":76},{"src":"http://localhost:8000/images/6_8.jpg","x":793,"y":76}],"moves":[],"final_locations":[{}],"stars_time":[7295.60000000149],"end_time":[7487.30000000447],"rt":191.70000000298023,"trial_type":"order","trial_index":11,"time_elapsed":6977,"internal_node_id":"0.0-11.0","subject":1688285508179,"condition":"conditionC"},{"init_locations":[{"src":"http://localhost:8000/images/7_1.jpg","x":309,"y":76},{"src":"http://localhost:8000/images/7_2.jpg","x":470,"y":76},{"src":"http://localhost:8000/images/7_3.jpg","x":631,"y":76},{"src":"http://localhost:8000/images/7_4.jpg","x":793,"y":76}],"moves":[],"final_locations":[{}],"stars_time":[7487.9000000059605],"end_time":[7679.30000000447],"rt":191.39999999850988,"trial_type":"order","trial_index":12,"time_elapsed":7169,"internal_node_id":"0.0-12.0","subject":1688285508179,"condition":"conditionC"},{"init_locations":[{"src":"http://localhost:8000/images/7_5.jpg","x":309,"y":76},{"src":"http://localhost:8000/images/7_6.jpg","x":470,"y":76},{"src":"http://localhost:8000/images/7_7.jpg","x":631,"y":76},{"src":"http://localhost:8000/images/7_8.jpg","x":793,"y":76}],"moves":[],"final_locations":[{}],"stars_time":[7680.20000000298],"end_time":[7887.20000000298],"rt":207,"trial_type":"order","trial_index":13,"time_elapsed":7377,"internal_node_id":"0.0-13.0","subject":1688285508179,"condition":"conditionC"},{"init_locations":[{"src":"http://localhost:8000/images/8_1.jpg","x":309,"y":76},{"src":"http://localhost:8000/images/8_2.jpg","x":470,"y":76},{"src":"http://localhost:8000/images/8_3.jpg","x":631,"y":76},{"src":"http://localhost:8000/images/8_4.jpg","x":793,"y":76}],"moves":[],"final_locations":[{}],"stars_time":[7887.9000000059605],"end_time":[8095.60000000149],"rt":207.69999999552965,"trial_type":"order","trial_index":14,"time_elapsed":7585,"internal_node_id":"0.0-14.0","subject":1688285508179,"condition":"conditionC"},{"init_locations":[{"src":"http://localhost:8000/images/8_5.jpg","x":309,"y":76},{"src":"http://localhost:8000/images/8_6.jpg","x":470,"y":76},{"src":"http://localhost:8000/images/8_7.jpg","x":631,"y":76},{"src":"http://localhost:8000/images/8_8.jpg","x":793,"y":76}],"moves":[],"final_locations":[{}],"stars_time":[8096.30000000447],"end_time":[8286.90000000596],"rt":190.60000000149012,"trial_type":"order","trial_index":15,"time_elapsed":7777,"internal_node_id":"0.0-15.0","subject":1688285508179,"condition":"conditionC"},{"init_locations":[{"src":"http://localhost:8000/images/9_1.jpg","x":309,"y":76},{"src":"http://localhost:8000/images/9_2.jpg","x":470,"y":76},{"src":"http://localhost:8000/images/9_3.jpg","x":631,"y":76},{"src":"http://localhost:8000/images/9_4.jpg","x":793,"y":76}],"moves":[],"final_locations":[{}],"stars_time":[8287.70000000298],"end_time":[8515],"rt":227.29999999701977,"trial_type":"order","trial_index":16,"time_elapsed":8005,"internal_node_id":"0.0-16.0","subject":1688285508179,"condition":"conditionC"},{"init_locations":[{"src":"http://localhost:8000/images/9_5.jpg","x":309,"y":76},{"src":"http://localhost:8000/images/9_6.jpg","x":470,"y":76},{"src":"http://localhost:8000/images/9_7.jpg","x":631,"y":76},{"src":"http://localhost:8000/images/9_8.jpg","x":793,"y":76}],"moves":[],"final_locations":[{}],"stars_time":[8515.60000000149],"end_time":[8719.30000000447],"rt":203.70000000298023,"trial_type":"order","trial_index":17,"time_elapsed":8209,"internal_node_id":"0.0-17.0","subject":1688285508179,"condition":"conditionC"},{"rt":1150.1999999955297,"button_pressed":"2","trial_type":"html-button-response","trial_index":18,"time_elapsed":9361,"internal_node_id":"0.0-18.0","subject":1688285508179,"condition":"conditionC"}]