"rt","responses","ttype","trial_type","trial_index","time_elapsed","internal_node_id","age","warning","missed_checkup","PID","success","start_time","view_history","repeat_instructions","key_press","response","stimulus_index","path","index","left_chosen","chosen_stimulus","unchosen_stimulus","chosen_category","unchosen_category","no_response","pair_id","practice","scramble_screen_time","scramble_instructed_side","stim_type","iti","block","run","left_stimulus","right_stimulus","left_category","right_category","left_path","right_path","left_rating","right_rating","onset","duration","response_ends_trial","trial_duration","scramble_acc"
"3152","{""Q0"":""22"",""Q1"":""2""}","get_id","survey-text","0","3158","0.0-0.0-0.0-0.0","2","0","0","22","","","","","","","","","","","","","","","","","","","","","","","","","","","","","","","","","","","",""
"","","full_screen","fullscreen","1","5244","0.0-0.0-1.0","","0","0","22","true","d03222023hr1913","","","","","","","","","","","","","","","","","","","","","","","","","","","","","","","","","",""
"981","","ratings_instructions","instructions","2","6225","0.0-1.0-0.0-0.0","","0","0","22","","","[{""page_index"":0,""viewing_time"":815},{""page_index"":1,""viewing_time"":166}]","","","","","","","","","","","","","","","","","","","","","","","","","","","","","","","","",""
"2953","{""Q0"":""True"",""Q1"":""Mouse""}","rating_comprehension_check","survey-multi-choice","3","9182","0.0-1.0-0.0-1.0","","0","0","22","","","","0","","","","","","","","","","","","","","","","","","","","","","","","","","","","","","","",""
"1137","","","html-keyboard-response","4","10321","0.0-1.0-1.0","","0","0","22","","","","","83","","","","","","","","","","","","","","","","","","","","","","","","","","","","","","",""
"876","","rating","html-slider-response","5","11200","0.0-1.0-2.0","","0","0","22","","","","","","50","45","Stimuli/Experimental_stims/body_parts/sincerely-media-7TBFwUQA6Xk-unsplash.jpg","0","","","","","","","","","","","","","","","","","","","","","","","","","","",""
"156","","rating","html-slider-response","6","11358","0.0-1.0-3.0","","0","0","22","","","","","","50","23","Stimuli/Experimental_stims/outdoor_scenes/yuriy-bogdanov-W51VK3Obcj0-unsplash.jpg","1","","","","","","","","","","","","","","","","","","","","","","","","","","",""
"156","","rating","html-slider-response","7","11516","0.0-1.0-4.0","","0","0","22","","","","","","50","16","Stimuli/Experimental_stims/outdoor_scenes/jarrett-kow-1ZOyYPOBn7I-unsplash.jpg","2","","","","","","","","","","","","","","","","","","","","","","","","","","",""
"225","","rating","html-slider-response","8","11743","0.0-1.0-5.0","","0","0","22","","","","","","50","38","Stimuli/Experimental_stims/body_parts/engin-akyurt-x_3gyC42btc-unsplash.jpg","3","","","","","","","","","","","","","","","","","","","","","","","","","","",""
"163","","rating","html-slider-response","9","11908","0.0-1.0-6.0","","0","0","22","","","","","","50","59","Stimuli/Experimental_stims/objects/ronaldo-arthur-vidal-Cdz_lvnl37k-unsplash.jpg","4","","","","","","","","","","","","","","","","","","","","","","","","","","",""
"164","","rating","html-slider-response","10","12074","0.0-1.0-7.0","","0","0","22","","","","","","50","55","Stimuli/Experimental_stims/objects/jiangxulei1990-eIzzzwtkBjU-unsplash.jpg","5","","","","","","","","","","","","","","","","","","","","","","","","","","",""
"160","","rating","html-slider-response","11","12236","0.0-1.0-8.0","","0","0","22","","","","","","50","19","Stimuli/Experimental_stims/outdoor_scenes/petr-vysohlid-9fqwGqGLUxc-unsplash.jpg","6","","","","","","","","","","","","","","","","","","","","","","","","","","",""
"164","","rating","html-slider-response","12","12401","0.0-1.0-9.0","","0","0","22","","","","","","50","20","Stimuli/Experimental_stims/outdoor_scenes/samsommer-vddccTqwal8-unsplash.jpg","7","","","","","","","","","","","","","","","","","","","","","","","","","","",""
"188","","rating","html-slider-response","13","12591","0.0-1.0-10.0","","0","0","22","","","","","","50","49","Stimuli/Experimental_stims/objects/alexander-andrews-VLGWE_SumrA-unsplash.jpg","8","","","","","","","","","","","","","","","","","","","","","","","","","","",""
"180","","rating","html-slider-response","14","12773","0.0-1.0-11.0","","0","0","22","","","","","","50","51","Stimuli/Experimental_stims/objects/art-lasovsky-8XddFc6NkBY-unsplash.jpg","9","","","","","","","","","","","","","","","","","","","","","","","","","","",""
"172","","rating","html-slider-response","15","12947","0.0-1.0-12.0","","0","0","22","","","","","","50","30","Stimuli/Experimental_stims/faces/good-faces-xmSWVeGEnJw-unsplash.jpg","10","","","","","","","","","","","","","","","","","","","","","","","","","","",""
"164","","rating","html-slider-response","16","13113","0.0-1.0-13.0","","0","0","22","","","","","","50","42","Stimuli/Experimental_stims/body_parts/lucrezia-carnelos-kn6QrWtnAtY-unsplash.jpg","11","","","","","","","","","","","","","","","","","","","","","","","","","","",""
"259","","rating","html-slider-response","17","13374","0.0-1.0-14.0","","0","0","22","","","","","","50","31","Stimuli/Experimental_stims/faces/jessica-radanavong-mrYkTuAesKE-unsplash.jpg","12","","","","","","","","","","","","","","","","","","","","","","","","","","",""
"172","","rating","html-slider-response","18","13548","0.0-1.0-15.0","","0","0","22","","","","","","50","33","Stimuli/Experimental_stims/faces/leilani-angel-K84vnnzxmTQ-unsplash.jpg","13","","","","","","","","","","","","","","","","","","","","","","","","","","",""
"160","","rating","html-slider-response","19","13710","0.0-1.0-16.0","","0","0","22","","","","","","50","47","Stimuli/Experimental_stims/body_parts/tucker-good-36skLT5jZcc-unsplash.jpg","14","","","","","","","","","","","","","","","","","","","","","","","","","","",""
"177","","rating","html-slider-response","20","13888","0.0-1.0-17.0","","0","0","22","","","","","","50","12","Stimuli/Experimental_stims/outdoor_scenes/aleksandra-boguslawska-MS7KD9Ti7FQ-unsplash.jpg","15","","","","","","","","","","","","","","","","","","","","","","","","","","",""
"164","","rating","html-slider-response","21","14054","0.0-1.0-18.0","","0","0","22","","","","","","50","13","Stimuli/Experimental_stims/outdoor_scenes/ashim-d-silva-S2Q5mdOrrVc-unsplash.jpg","16","","","","","","","","","","","","","","","","","","","","","","","","","","",""
"179","","rating","html-slider-response","22","14235","0.0-1.0-19.0","","0","0","22","","","","","","50","24","Stimuli/Experimental_stims/faces/abstral-official-cyOKLSgkgCE-unsplash.jpg","17","","","","","","","","","","","","","","","","","","","","","","","","","","",""
"173","","rating","html-slider-response","23","14410","0.0-1.0-20.0","","0","0","22","","","","","","50","40","Stimuli/Experimental_stims/body_parts/klara-kulikova-TcUfF24fUMY-unsplash.jpg","18","","","","","","","","","","","","","","","","","","","","","","","","","","",""
"164","","rating","html-slider-response","24","14576","0.0-1.0-21.0","","0","0","22","","","","","","50","28","Stimuli/Experimental_stims/faces/erik-lucatero-d2MSDujJl2g-unsplash.jpg","19","","","","","","","","","","","","","","","","","","","","","","","","","","",""
"188","","rating","html-slider-response","25","14766","0.0-1.0-22.0","","0","0","22","","","","","","50","43","Stimuli/Experimental_stims/body_parts/megan-menegay-UojxG_BJxnI-unsplash.jpg","20","","","","","","","","","","","","","","","","","","","","","","","","","","",""
"172","","rating","html-slider-response","26","14940","0.0-1.0-23.0","","0","0","22","","","","","","50","35","Stimuli/Experimental_stims/faces/rikonavt-HQjfrvdTfak-unsplash.jpg","21","","","","","","","","","","","","","","","","","","","","","","","","","","",""
"172","","rating","html-slider-response","27","15114","0.0-1.0-24.0","","0","0","22","","","","","","50","57","Stimuli/Experimental_stims/objects/kuiye-chen-NuOGFo4PudE-unsplash.jpg","22","","","","","","","","","","","","","","","","","","","","","","","","","","",""
"156","","rating","html-slider-response","28","15272","0.0-1.0-25.0","","0","0","22","","","","","","50","50","Stimuli/Experimental_stims/objects/andrew-petrov-TVJqDat4MAw-unsplash.jpg","23","","","","","","","","","","","","","","","","","","","","","","","","","","",""
"164","","rating","html-slider-response","29","15438","0.0-1.0-26.0","","0","0","22","","","","","","50","37","Stimuli/Experimental_stims/body_parts/engin-akyurt-Q2rfH3GW39c-unsplash.jpg","24","","","","","","","","","","","","","","","","","","","","","","","","","","",""
"243","","rating","html-slider-response","30","15683","0.0-1.0-27.0","","0","0","22","","","","","","50","39","Stimuli/Experimental_stims/body_parts/jonathan-borba-hTwH8QFkPMs-unsplash.jpg","25","","","","","","","","","","","","","","","","","","","","","","","","","","",""
"157","","rating","html-slider-response","31","15841","0.0-1.0-28.0","","0","0","22","","","","","","50","48","Stimuli/Experimental_stims/objects/alexander-andrews-JYGnB9gTCls-unsplash.jpg","26","","","","","","","","","","","","","","","","","","","","","","","","","","",""
"165","","rating","html-slider-response","32","16007","0.0-1.0-29.0","","0","0","22","","","","","","50","17","Stimuli/Experimental_stims/outdoor_scenes/jeff-king-bJHWJeiHfHc-unsplash.jpg","27","","","","","","","","","","","","","","","","","","","","","","","","","","",""
"179","","rating","html-slider-response","33","16189","0.0-1.0-30.0","","0","0","22","","","","","","50","26","Stimuli/Experimental_stims/faces/art-hauntington-jzY0KRJopEI-unsplash.jpg","28","","","","","","","","","","","","","","","","","","","","","","","","","","",""
"172","","rating","html-slider-response","34","16363","0.0-1.0-31.0","","0","0","22","","","","","","50","21","Stimuli/Experimental_stims/outdoor_scenes/sergey-pesterev-y-b_FOmJXdg-unsplash.jpg","29","","","","","","","","","","","","","","","","","","","","","","","","","","",""
"164","","rating","html-slider-response","35","16529","0.0-1.0-32.0","","0","0","22","","","","","","50","22","Stimuli/Experimental_stims/outdoor_scenes/stephen-leonardi-gyIRjKPXupE-unsplash.jpg","30","","","","","","","","","","","","","","","","","","","","","","","","","","",""
"179","","rating","html-slider-response","36","16711","0.0-1.0-33.0","","0","0","22","","","","","","50","44","Stimuli/Experimental_stims/body_parts/pure-julia-9lVaya31sMk-unsplash.jpg","31","","","","","","","","","","","","","","","","","","","","","","","","","","",""
"165","","rating","html-slider-response","37","16877","0.0-1.0-34.0","","0","0","22","","","","","","50","41","Stimuli/Experimental_stims/body_parts/lucaxx-freire-CacZwMexYdk-unsplash.jpg","32","","","","","","","","","","","","","","","","","","","","","","","","","","",""
"179","","rating","html-slider-response","38","17059","0.0-1.0-35.0","","0","0","22","","","","","","50","25","Stimuli/Experimental_stims/faces/aiony-haust-jmATI5Q_YgY-unsplash.jpg","33","","","","","","","","","","","","","","","","","","","","","","","","","","",""
"220","","rating","html-slider-response","39","17280","0.0-1.0-36.0","","0","0","22","","","","","","50","36","Stimuli/Experimental_stims/body_parts/callum-skelton-3KLMq7y46nA-unsplash.jpg","34","","","","","","","","","","","","","","","","","","","","","","","","","","",""
"1256","","rating","html-slider-response","40","18538","0.0-1.0-37.0","","0","0","22","","","","","","50","58","Stimuli/Experimental_stims/objects/mockup-graphics-PNsj6RiHAF4-unsplash.jpg","35","","","","","","","","","","","","","","","","","","","","","","","","","","",""
"480","","rating","html-slider-response","41","19020","0.0-1.0-38.0","","0","0","22","","","","","","50","32","Stimuli/Experimental_stims/faces/justin-chen-J7Cf1Gch49E-unsplash.jpg","36","","","","","","","","","","","","","","","","","","","","","","","","","","",""
"416","","rating","html-slider-response","42","19439","0.0-1.0-39.0","","0","0","22","","","","","","50","52","Stimuli/Experimental_stims/objects/fabian-blank-pElSkGRA2NU-unsplash.jpg","37","","","","","","","","","","","","","","","","","","","","","","","","","","",""
"589","","rating","html-slider-response","43","20030","0.0-1.0-40.0","","0","0","22","","","","","","50","27","Stimuli/Experimental_stims/faces/daniel-rigdon-dXmXKPP2L4E-unsplash.jpg","38","","","","","","","","","","","","","","","","","","","","","","","","","","",""
"460","","rating","html-slider-response","44","20492","0.0-1.0-41.0","","0","0","22","","","","","","50","46","Stimuli/Experimental_stims/body_parts/sincerely-media-VN6DbKajo5s-unsplash.jpg","39","","","","","","","","","","","","","","","","","","","","","","","","","","",""
"543","","rating","html-slider-response","45","21037","0.0-1.0-42.0","","0","0","22","","","","","","50","54","Stimuli/Experimental_stims/objects/jess-bailey-nOeVi8DsN8U-unsplash.jpg","40","","","","","","","","","","","","","","","","","","","","","","","","","","",""
"527","","rating","html-slider-response","46","21566","0.0-1.0-43.0","","0","0","22","","","","","","50","34","Stimuli/Experimental_stims/faces/olena-sergienko-0TSd6uCKTKc-unsplash.jpg","41","","","","","","","","","","","","","","","","","","","","","","","","","","",""
"536","","rating","html-slider-response","47","22104","0.0-1.0-44.0","","0","0","22","","","","","","50","53","Stimuli/Experimental_stims/objects/insung-yoon-w2JtIQQXoRU-unsplash.jpg","42","","","","","","","","","","","","","","","","","","","","","","","","","","",""
"568","","rating","html-slider-response","48","22674","0.0-1.0-45.0","","0","0","22","","","","","","50","56","Stimuli/Experimental_stims/objects/jonathan-greenaway-Y4hGgeiFn3s-unsplash.jpg","43","","","","","","","","","","","","","","","","","","","","","","","","","","",""
"719","","rating","html-slider-response","49","23394","0.0-1.0-46.0","","0","0","22","","","","","","50","14","Stimuli/Experimental_stims/outdoor_scenes/bruno-van-der-kraan-qez8mNJ3ilU-unsplash.jpg","44","","","","","","","","","","","","","","","","","","","","","","","","","","",""
"585","","rating","html-slider-response","50","23982","0.0-1.0-47.0","","0","0","22","","","","","","50","29","Stimuli/Experimental_stims/faces/freddy-kearney-o-ioeoATbIM-unsplash.jpg","45","","","","","","","","","","","","","","","","","","","","","","","","","","",""
"676","","rating","html-slider-response","51","24659","0.0-1.0-48.0","","0","0","22","","","","","","50","18","Stimuli/Experimental_stims/outdoor_scenes/meng-ji-8BH_M-53CyA-unsplash.jpg","46","","","","","","","","","","","","","","","","","","","","","","","","","","",""
"259","","rating","html-slider-response","52","24920","0.0-1.0-49.0","","0","0","22","","","","","","50","15","Stimuli/Experimental_stims/outdoor_scenes/henry-be-NLF6hTe4PAg-unsplash.jpg","47","","","","","","","","","","","","","","","","","","","","","","","","","","",""
"3646","","deliberation_instructions","instructions","53","28604","0.0-2.0-0.0-0.0","","0","0","22","","","[{""page_index"":0,""viewing_time"":1321},{""page_index"":1,""viewing_time"":609},{""page_index"":2,""viewing_time"":530},{""page_index"":3,""viewing_time"":648},{""page_index"":4,""viewing_time"":538}]","","","","","","","","","","","","","","","","","","","","","","","","","","","","","","","","",""
"6687","{""Q0"":""True"",""Q1"":""True"",""Q2"":""Consider carefully and take your time (up to 10 seconds)"",""Q3"":""True"",""Q4"":""D""}","deliberation_comprehension_check","survey-multi-choice","54","35295","0.0-2.0-0.0-1.0","","0","0","22","","","","0","","","","","","","","","","","","","","","","","","","","","","","","","","","","","","","",""
"1913","","","html-keyboard-response","55","37211","0.0-2.0-1.0","","0","0","22","","","","","83","","","","","","","","","","","","","","","","","","","","","","","","","","","","","","",""
"947","","deliberation","html-keyboard-response","56","38161","0.0-2.0-2.0-0.0","","0","0","22","","","","","50","","","","0","1","NA","NA","NaN","NaN","0","prac1","1","NaN","NaN","original","1500","0","0","NA","NA","NaN","NaN","Stimuli/Practice_stims/Deliberation/anthony-delanoix-Q0-fOL2nqZc-unsplash.jpg","Stimuli/Practice_stims/Deliberation/becca-tapert-sY5RjMB1KkE-unsplash.jpg","NA","NA","0","0.947","","",""
"null","","deliberation_confirmation","html-keyboard-response","57","38220","0.0-2.0-2.0-2.0-0.0","","0","0","22","","","","","null","","","","0","","","","","","","","","","","","","0","","","","","","","","","","0.947","0.053","","",""
"null","","iti","html-keyboard-response","58","38331","0.0-2.0-2.0-4.0","","0","0","22","","","","","null","","","","0","","","","","","","","","","","","","0","","","","","","","","","","1","1.5","","",""
"402","","deliberation","html-keyboard-response","59","38736","0.0-2.0-4.0-0.0","","0","0","22","","","","","50","","","","1","","","","","","","prac2","1","2559","NaN","scramble","2500","0","0","NA","NA","NaN","NaN","Stimuli/Practice_stims/Deliberation/scramble/scrambled_clay-banks-1KPfcPdbWFM-unsplash.jpg","Stimuli/Practice_stims/Deliberation/scramble/scrambled_melissa-keizer-sV4Pd8wq5_o-unsplash.jpg","NA","NA","2.5","2559","false","2559",""
"498","","scramble_instruction","html-keyboard-response","60","39236","0.0-2.0-4.0-1.0-0.0","","0","0","22","","","","","50","","","","1","1","NA","NA","NaN","NaN","0","","","","","","","0","","","","","","","","","","2561.5","1000","","","0"
"null","","deliberation_confirmation","html-keyboard-response","61","39240","0.0-2.0-4.0-2.0-0.0","","0","0","22","","","","","null","","","","1","","","","","","","","","","","","","0","","","","","","","","","","3561.5","-2.057","","",""
"null","","iti","html-keyboard-response","62","39342","0.0-2.0-4.0-4.0","","0","0","22","","","","","null","","","","1","","","","","","","","","","","","","0","","","","","","","","","","3559.443","2.5","","",""
"198","","deliberation","html-keyboard-response","63","39543","0.0-2.0-6.0-0.0","","0","0","22","","","","","50","","","","2","","","","","","","prac3","1","1450","NaN","scramble","3000","0","0","NA","NA","NaN","NaN","Stimuli/Practice_stims/Deliberation/scramble/scrambled_anthony-delanoix-Q0-fOL2nqZc-unsplash.jpg","Stimuli/Practice_stims/Deliberation/scramble/scrambled_becca-tapert-sY5RjMB1KkE-unsplash.jpg","NA","NA","3561.943","1450","false","1450",""
"297","","scramble_instruction","html-keyboard-response","64","39841","0.0-2.0-6.0-1.0-0.0","","0","0","22","","","","","50","","","","2","1","NA","NA","NaN","NaN","0","","","","","","","0","","","","","","","","","","5011.943","1000","","","0"
"null","","deliberation_confirmation","html-keyboard-response","65","39845","0.0-2.0-6.0-2.0-0.0","","0","0","22","","","","","null","","","","2","","","","","","","","","","","","","0","","","","","","","","","","6011.943","-0.747","","",""
"null","","iti","html-keyboard-response","66","39956","0.0-2.0-6.0-4.0","","0","0","22","","","","","null","","","","2","","","","","","","","","","","","","0","","","","","","","","","","6011.196","3","","",""
"174","","deliberation","html-keyboard-response","67","40133","0.0-2.0-8.0-0.0","","0","0","22","","","","","50","","","","3","1","NA","NA","NaN","NaN","0","prac4","1","NaN","NaN","original","2000","0","0","NA","NA","NaN","NaN","Stimuli/Practice_stims/Deliberation/clay-banks-1KPfcPdbWFM-unsplash.jpg","Stimuli/Practice_stims/Deliberation/melissa-keizer-sV4Pd8wq5_o-unsplash.jpg","NA","NA","6014.196","0.174","","",""
"null","","deliberation_confirmation","html-keyboard-response","68","40965","0.0-2.0-8.0-2.0-0.0","","0","0","22","","","","","null","","","","3","","","","","","","","","","","","","0","","","","","","","","","","6014.37","0.826","","",""
"null","","iti","html-keyboard-response","69","41079","0.0-2.0-8.0-4.0","","0","0","22","","","","","null","","","","3","","","","","","","","","","","","","0","","","","","","","","","","6015.196","2","","",""
"1371","","deliberation_practice_over","html-keyboard-response","70","42451","0.0-2.0-8.0-5.0-0.0","","0","0","22","","","","","83","","","","3","","","","","","","","","","","","","","","","","","","","","","","","","","",""
"1183","","start_run","html-keyboard-response","71","43634","0.0-2.0-8.0-5.0-1.0","","0","0","22","","","","","84","","","","","","","","","","","","","","","","","","","","","","","","","","","","","","",""
"144","","deliberation","html-keyboard-response","72","43781","0.0-2.0-10.0-0.0","","0","0","22","","","","","50","","","","4","","","","","","","B","0","1152","NaN","scramble","1500","1","1","20","32","outdoor_scenes","faces","Stimuli/Experimental_stims/scramble/outdoor_scenes/scrambled_samsommer-vddccTqwal8-unsplash.jpg","Stimuli/Experimental_stims/scramble/faces/scrambled_justin-chen-J7Cf1Gch49E-unsplash.jpg","NaN","NaN","0","1152","false","1152",""
"233","","scramble_instruction","html-keyboard-response","73","44016","0.0-2.0-10.0-1.0-0.0","","0","0","22","","","","","50","","","","4","1","20","32","outdoor_scenes","faces","0","","","","","","","1","","","","","","","","","","1152","1000","","","0"
"null","","deliberation_confirmation","html-keyboard-response","74","44019","0.0-2.0-10.0-2.0-0.0","","0","0","22","","","","","null","","","","4","","","","","","","","","","","","","1","","","","","","","","","","2152","-0.385","","",""
"null","","iti","html-keyboard-response","75","44125","0.0-2.0-10.0-4.0","","0","0","22","","","","","null","","","","4","","","","","","","","","","","","","1","","","","","","","","","","2151.615","1.5","","",""
"114","","deliberation","html-keyboard-response","76","44242","0.0-2.0-12.0-0.0","","0","0","22","","","","","50","","","","5","1","53","28","objects","faces","0","D","0","NaN","NaN","original","1000","1","1","53","28","objects","faces","Stimuli/Experimental_stims/objects/insung-yoon-w2JtIQQXoRU-unsplash.jpg","Stimuli/Experimental_stims/faces/erik-lucatero-d2MSDujJl2g-unsplash.jpg","50","50","2153.115","0.114","","",""
"null","","deliberation_confirmation","html-keyboard-response","77","45138","0.0-2.0-12.0-2.0-0.0","","0","0","22","","","","","null","","","","5","","","","","","","","","","","","","1","","","","","","","","","","2153.229","0.886","","",""
"null","","iti","html-keyboard-response","78","45243","0.0-2.0-12.0-4.0","","0","0","22","","","","","null","","","","5","","","","","","","","","","","","","1","","","","","","","","","","2154.115","1","","",""
"218","","deliberation","html-keyboard-response","79","45464","0.0-2.0-14.0-0.0","","0","0","22","","","","","50","","","","6","1","25","16","faces","outdoor_scenes","0","H","0","NaN","NaN","original","1000","1","1","25","16","faces","outdoor_scenes","Stimuli/Experimental_stims/faces/aiony-haust-jmATI5Q_YgY-unsplash.jpg","Stimuli/Experimental_stims/outdoor_scenes/jarrett-kow-1ZOyYPOBn7I-unsplash.jpg","50","50","2155.115","0.218","","",""
"null","","deliberation_confirmation","html-keyboard-response","80","46251","0.0-2.0-14.0-2.0-0.0","","0","0","22","","","","","null","","","","6","","","","","","","","","","","","","1","","","","","","","","","","2155.3329999999996","0.782","","",""
"null","","iti","html-keyboard-response","81","46357","0.0-2.0-14.0-4.0","","0","0","22","","","","","null","","","","6","","","","","","","","","","","","","1","","","","","","","","","","2156.115","1","","",""
"13","","deliberation","html-keyboard-response","82","46373","0.0-2.0-16.0-0.0","","0","0","22","","","","","50","","","","7","","","","","","","A","0","1883","NaN","scramble","1500","1","1","13","54","outdoor_scenes","objects","Stimuli/Experimental_stims/scramble/outdoor_scenes/scrambled_ashim-d-silva-S2Q5mdOrrVc-unsplash.jpg","Stimuli/Experimental_stims/scramble/objects/scrambled_jess-bailey-nOeVi8DsN8U-unsplash.jpg","NaN","NaN","2157.115","1883","false","1883",""
"340","","scramble_instruction","html-keyboard-response","83","46713","0.0-2.0-16.0-1.0-0.0","","0","0","22","","","","","50","","","","7","1","13","54","outdoor_scenes","objects","0","","","","","","","1","","","","","","","","","","4040.115","1000","","","0"
"null","","deliberation_confirmation","html-keyboard-response","84","46716","0.0-2.0-16.0-2.0-0.0","","0","0","22","","","","","null","","","","7","","","","","","","","","","","","","1","","","","","","","","","","5040.115","-1.223","","",""
"null","","iti","html-keyboard-response","85","46819","0.0-2.0-16.0-4.0","","0","0","22","","","","","null","","","","7","","","","","","","","","","","","","1","","","","","","","","","","5038.892","1.5","","",""
"178","","deliberation","html-keyboard-response","86","47000","0.0-2.0-18.0-0.0","","0","0","22","","","","","50","","","","8","","","","","","","J","0","1701","NaN","scramble","3000","1","1","26","59","faces","objects","Stimuli/Experimental_stims/scramble/faces/scrambled_art-hauntington-jzY0KRJopEI-unsplash.jpg","Stimuli/Experimental_stims/scramble/objects/scrambled_ronaldo-arthur-vidal-Cdz_lvnl37k-unsplash.jpg","NaN","NaN","5040.392","1701","false","1701",""
"318","","scramble_instruction","html-keyboard-response","87","47320","0.0-2.0-18.0-1.0-0.0","","0","0","22","","","","","50","","","","8","1","26","59","faces","objects","0","","","","","","","1","","","","","","","","","","6741.392","1000","","","0"
"null","","deliberation_confirmation","html-keyboard-response","88","47323","0.0-2.0-18.0-2.0-0.0","","0","0","22","","","","","null","","","","8","","","","","","","","","","","","","1","","","","","","","","","","7741.392","-1.019","","",""
"null","","iti","html-keyboard-response","89","47426","0.0-2.0-18.0-4.0","","0","0","22","","","","","null","","","","8","","","","","","","","","","","","","1","","","","","","","","","","7740.373","3","","",""
"232","","deliberation","html-keyboard-response","90","47661","0.0-2.0-20.0-0.0","","0","0","22","","","","","50","","","","9","","","","","","","K","0","1339","NaN","scramble","3000","1","1","38","50","body_parts","objects","Stimuli/Experimental_stims/scramble/body_parts/scrambled_engin-akyurt-x_3gyC42btc-unsplash.jpg","Stimuli/Experimental_stims/scramble/objects/scrambled_andrew-petrov-TVJqDat4MAw-unsplash.jpg","NaN","NaN","7743.373","1339","false","1339",""
"355","","scramble_instruction","html-keyboard-response","91","48018","0.0-2.0-20.0-1.0-0.0","","0","0","22","","","","","50","","","","9","1","38","50","body_parts","objects","0","","","","","","","1","","","","","","","","","","9082.373","1000","","","0"
"null","","deliberation_confirmation","html-keyboard-response","92","48020","0.0-2.0-20.0-2.0-0.0","","0","0","22","","","","","null","","","","9","","","","","","","","","","","","","1","","","","","","","","","","10082.373","-0.694","","",""
"null","","iti","html-keyboard-response","93","48127","0.0-2.0-20.0-4.0","","0","0","22","","","","","null","","","","9","","","","","","","","","","","","","1","","","","","","","","","","10081.679","3","","",""
"184","","deliberation","html-keyboard-response","94","48313","0.0-2.0-22.0-0.0","","0","0","22","","","","","50","","","","10","","","","","","","L","0","1820","NaN","scramble","1000","1","1","47","24","body_parts","faces","Stimuli/Experimental_stims/scramble/body_parts/scrambled_tucker-good-36skLT5jZcc-unsplash.jpg","Stimuli/Experimental_stims/scramble/faces/scrambled_abstral-official-cyOKLSgkgCE-unsplash.jpg","NaN","NaN","10084.679","1820","false","1820",""
"338","","scramble_instruction","html-keyboard-response","95","48652","0.0-2.0-22.0-1.0-0.0","","0","0","22","","","","","50","","","","10","1","47","24","body_parts","faces","0","","","","","","","1","","","","","","","","","","11904.679","1000","","","0"
"null","","deliberation_confirmation","html-keyboard-response","96","48655","0.0-2.0-22.0-2.0-0.0","","0","0","22","","","","","null","","","","10","","","","","","","","","","","","","1","","","","","","","","","","12904.679","-1.158","","",""
"null","","iti","html-keyboard-response","97","48763","0.0-2.0-22.0-4.0","","0","0","22","","","","","null","","","","10","","","","","","","","","","","","","1","","","","","","","","","","12903.521","1","","",""
"215","","deliberation","html-keyboard-response","98","48980","0.0-2.0-24.0-0.0","","0","0","22","","","","","50","","","","11","1","22","43","outdoor_scenes","body_parts","0","C","0","NaN","NaN","original","1500","1","1","22","43","outdoor_scenes","body_parts","Stimuli/Experimental_stims/outdoor_scenes/stephen-leonardi-gyIRjKPXupE-unsplash.jpg","Stimuli/Experimental_stims/body_parts/megan-menegay-UojxG_BJxnI-unsplash.jpg","50","50","12904.521","0.215","","",""
"null","","deliberation_confirmation","html-keyboard-response","99","49772","0.0-2.0-24.0-2.0-0.0","","0","0","22","","","","","null","","","","11","","","","","","","","","","","","","1","","","","","","","","","","12904.736","0.785","","",""
"null","","iti","html-keyboard-response","100","49877","0.0-2.0-24.0-4.0","","0","0","22","","","","","null","","","","11","","","","","","","","","","","","","1","","","","","","","","","","12905.521","1.5","","",""
"344","","deliberation","html-keyboard-response","101","50225","0.0-2.0-26.0-0.0","","0","0","22","","","","","50","","","","12","1","20","32","outdoor_scenes","faces","0","B","0","NaN","NaN","original","3000","1","1","20","32","outdoor_scenes","faces","Stimuli/Experimental_stims/outdoor_scenes/samsommer-vddccTqwal8-unsplash.jpg","Stimuli/Experimental_stims/faces/justin-chen-J7Cf1Gch49E-unsplash.jpg","50","50","12907.021","0.344","","",""
"null","","deliberation_confirmation","html-keyboard-response","102","50895","0.0-2.0-26.0-2.0-0.0","","0","0","22","","","","","null","","","","12","","","","","","","","","","","","","1","","","","","","","","","","12907.365","0.656","","",""
"null","","iti","html-keyboard-response","103","51003","0.0-2.0-26.0-4.0","","0","0","22","","","","","null","","","","12","","","","","","","","","","","","","1","","","","","","","","","","12908.021","3","","",""
"146","","deliberation","html-keyboard-response","104","51152","0.0-2.0-28.0-0.0","","0","0","22","","","","","50","","","","13","1","47","24","body_parts","faces","0","L","0","NaN","NaN","original","1500","1","1","47","24","body_parts","faces","Stimuli/Experimental_stims/body_parts/tucker-good-36skLT5jZcc-unsplash.jpg","Stimuli/Experimental_stims/faces/abstral-official-cyOKLSgkgCE-unsplash.jpg","50","50","12911.021","0.146","","",""
"null","","deliberation_confirmation","html-keyboard-response","105","52011","0.0-2.0-28.0-2.0-0.0","","0","0","22","","","","","null","","","","13","","","","","","","","","","","","","1","","","","","","","","","","12911.167000000001","0.854","","",""
"null","","iti","html-keyboard-response","106","52114","0.0-2.0-28.0-4.0","","0","0","22","","","","","null","","","","13","","","","","","","","","","","","","1","","","","","","","","","","12912.021","1.5","","",""
"94","","deliberation","html-keyboard-response","107","52212","0.0-2.0-30.0-0.0","","0","0","22","","","","","50","","","","14","","","","","","","G","0","1933","NaN","scramble","1000","1","1","56","18","objects","outdoor_scenes","Stimuli/Experimental_stims/scramble/objects/scrambled_jonathan-greenaway-Y4hGgeiFn3s-unsplash.jpg","Stimuli/Experimental_stims/scramble/outdoor_scenes/scrambled_meng-ji-8BH_M-53CyA-unsplash.jpg","NaN","NaN","12913.521","1933","false","1933",""
"345","","scramble_instruction","html-keyboard-response","108","52559","0.0-2.0-30.0-1.0-0.0","","0","0","22","","","","","50","","","","14","1","56","18","objects","outdoor_scenes","0","","","","","","","1","","","","","","","","","","14846.521","1000","","","0"
"null","","deliberation_confirmation","html-keyboard-response","109","52562","0.0-2.0-30.0-2.0-0.0","","0","0","22","","","","","null","","","","14","","","","","","","","","","","","","1","","","","","","","","","","15846.521","-1.278","","",""
"null","","iti","html-keyboard-response","110","52667","0.0-2.0-30.0-4.0","","0","0","22","","","","","null","","","","14","","","","","","","","","","","","","1","","","","","","","","","","15845.243","1","","",""
"266","","deliberation","html-keyboard-response","111","52935","0.0-2.0-32.0-0.0","","0","0","22","","","","","50","","","","15","1","13","54","outdoor_scenes","objects","0","A","0","NaN","NaN","original","1500","1","1","13","54","outdoor_scenes","objects","Stimuli/Experimental_stims/outdoor_scenes/ashim-d-silva-S2Q5mdOrrVc-unsplash.jpg","Stimuli/Experimental_stims/objects/jess-bailey-nOeVi8DsN8U-unsplash.jpg","50","50","15846.243","0.266","","",""
"null","","deliberation_confirmation","html-keyboard-response","112","53677","0.0-2.0-32.0-2.0-0.0","","0","0","22","","","","","null","","","","15","","","","","","","","","","","","","1","","","","","","","","","","15846.509","0.734","","",""
"null","","iti","html-keyboard-response","113","53790","0.0-2.0-32.0-4.0","","0","0","22","","","","","null","","","","15","","","","","","","","","","","","","1","","","","","","","","","","15847.243","1.5","","",""
"153","","deliberation","html-keyboard-response","114","53946","0.0-2.0-34.0-0.0","","0","0","22","","","","","50","","","","16","1","30","40","faces","body_parts","0","F","0","NaN","NaN","original","1000","1","1","30","40","faces","body_parts","Stimuli/Experimental_stims/faces/good-faces-xmSWVeGEnJw-unsplash.jpg","Stimuli/Experimental_stims/body_parts/klara-kulikova-TcUfF24fUMY-unsplash.jpg","50","50","15848.743","0.153","","",""
"null","","deliberation_confirmation","html-keyboard-response","115","54805","0.0-2.0-34.0-2.0-0.0","","0","0","22","","","","","null","","","","16","","","","","","","","","","","","","1","","","","","","","","","","15848.896","0.847","","",""
"null","","iti","html-keyboard-response","116","54913","0.0-2.0-34.0-4.0","","0","0","22","","","","","null","","","","16","","","","","","","","","","","","","1","","","","","","","","","","15849.743","1","","",""
"216","","deliberation","html-keyboard-response","117","55132","0.0-2.0-36.0-0.0","","0","0","22","","","","","50","","","","17","","","","","","","E","0","313","NaN","scramble","1000","1","1","52","45","objects","body_parts","Stimuli/Experimental_stims/scramble/objects/scrambled_fabian-blank-pElSkGRA2NU-unsplash.jpg","Stimuli/Experimental_stims/scramble/body_parts/scrambled_sincerely-media-7TBFwUQA6Xk-unsplash.jpg","NaN","NaN","15850.743","313","false","313",""
"392","","scramble_instruction","html-keyboard-response","118","55526","0.0-2.0-36.0-1.0-0.0","","0","0","22","","","","","50","","","","17","1","52","45","objects","body_parts","0","","","","","","","1","","","","","","","","","","16163.743","1000","","","0"
"null","","deliberation_confirmation","html-keyboard-response","119","55827","0.0-2.0-36.0-2.0-0.0","","0","0","22","","","","","null","","","","17","","","","","","","","","","","","","1","","","","","","","","","","17163.743000000002","0.295","","",""
"null","","iti","html-keyboard-response","120","55934","0.0-2.0-36.0-4.0","","0","0","22","","","","","null","","","","17","","","","","","","","","","","","","1","","","","","","","","","","17164.038","1","","",""
"109","","deliberation","html-keyboard-response","121","56046","0.0-2.0-38.0-0.0","","0","0","22","","","","","50","","","","18","","","","","","","F","0","1345","NaN","scramble","1000","1","1","30","40","faces","body_parts","Stimuli/Experimental_stims/scramble/faces/scrambled_good-faces-xmSWVeGEnJw-unsplash.jpg","Stimuli/Experimental_stims/scramble/body_parts/scrambled_klara-kulikova-TcUfF24fUMY-unsplash.jpg","NaN","NaN","17165.038","1345","false","1345",""
"404","","scramble_instruction","html-keyboard-response","122","56452","0.0-2.0-38.0-1.0-0.0","","0","0","22","","","","","50","","","","18","1","30","40","faces","body_parts","0","","","","","","","1","","","","","","","","","","18510.038","1000","","","0"
"null","","deliberation_confirmation","html-keyboard-response","123","56455","0.0-2.0-38.0-2.0-0.0","","0","0","22","","","","","null","","","","18","","","","","","","","","","","","","1","","","","","","","","","","19510.038","-0.749","","",""
"null","","iti","html-keyboard-response","124","56563","0.0-2.0-38.0-4.0","","0","0","22","","","","","null","","","","18","","","","","","","","","","","","","1","","","","","","","","","","19509.289","1","","",""
"248","","deliberation","html-keyboard-response","125","56815","0.0-2.0-40.0-0.0","","0","0","22","","","","","50","","","","19","","","","","","","C","0","1940","NaN","scramble","2000","1","1","22","43","outdoor_scenes","body_parts","Stimuli/Experimental_stims/scramble/outdoor_scenes/scrambled_stephen-leonardi-gyIRjKPXupE-unsplash.jpg","Stimuli/Experimental_stims/scramble/body_parts/scrambled_megan-menegay-UojxG_BJxnI-unsplash.jpg","NaN","NaN","19510.289","1940","false","1940",""
"383","","scramble_instruction","html-keyboard-response","126","57200","0.0-2.0-40.0-1.0-0.0","","0","0","22","","","","","50","","","","19","1","22","43","outdoor_scenes","body_parts","0","","","","","","","1","","","","","","","","","","21450.289","1000","","","0"
"null","","deliberation_confirmation","html-keyboard-response","127","57202","0.0-2.0-40.0-2.0-0.0","","0","0","22","","","","","null","","","","19","","","","","","","","","","","","","1","","","","","","","","","","22450.289","-1.323","","",""
"null","","iti","html-keyboard-response","128","57311","0.0-2.0-40.0-4.0","","0","0","22","","","","","null","","","","19","","","","","","","","","","","","","1","","","","","","","","","","22448.966","2","","",""
"244","","deliberation","html-keyboard-response","129","57557","0.0-2.0-42.0-0.0","","0","0","22","","","","","50","","","","20","","","","","","","D","0","1223","NaN","scramble","3500","1","1","53","28","objects","faces","Stimuli/Experimental_stims/scramble/objects/scrambled_insung-yoon-w2JtIQQXoRU-unsplash.jpg","Stimuli/Experimental_stims/scramble/faces/scrambled_erik-lucatero-d2MSDujJl2g-unsplash.jpg","NaN","NaN","22450.966","1223","false","1223",""
"378","","scramble_instruction","html-keyboard-response","130","57937","0.0-2.0-42.0-1.0-0.0","","0","0","22","","","","","50","","","","20","1","53","28","objects","faces","0","","","","","","","1","","","","","","","","","","23673.966","1000","","","0"
"null","","deliberation_confirmation","html-keyboard-response","131","57940","0.0-2.0-42.0-2.0-0.0","","0","0","22","","","","","null","","","","20","","","","","","","","","","","","","1","","","","","","","","","","24673.966","-0.601","","",""
"null","","iti","html-keyboard-response","132","58045","0.0-2.0-42.0-4.0","","0","0","22","","","","","null","","","","20","","","","","","","","","","","","","1","","","","","","","","","","24673.365","3.5","","",""
"256","","deliberation","html-keyboard-response","133","58304","0.0-2.0-44.0-0.0","","0","0","22","","","","","50","","","","21","1","26","59","faces","objects","0","J","0","NaN","NaN","original","2000","1","1","26","59","faces","objects","Stimuli/Experimental_stims/faces/art-hauntington-jzY0KRJopEI-unsplash.jpg","Stimuli/Experimental_stims/objects/ronaldo-arthur-vidal-Cdz_lvnl37k-unsplash.jpg","50","50","24676.865","0.256","","",""
"null","","deliberation_confirmation","html-keyboard-response","134","59059","0.0-2.0-44.0-2.0-0.0","","0","0","22","","","","","null","","","","21","","","","","","","","","","","","","1","","","","","","","","","","24677.121000000003","0.744","","",""
"null","","iti","html-keyboard-response","135","59163","0.0-2.0-44.0-4.0","","0","0","22","","","","","null","","","","21","","","","","","","","","","","","","1","","","","","","","","","","24677.865","2","","",""
"103","","deliberation","html-keyboard-response","136","59268","0.0-2.0-46.0-0.0","","0","0","22","","","","","50","","","","22","1","38","50","body_parts","objects","0","K","0","NaN","NaN","original","3000","1","1","38","50","body_parts","objects","Stimuli/Experimental_stims/body_parts/engin-akyurt-x_3gyC42btc-unsplash.jpg","Stimuli/Experimental_stims/objects/andrew-petrov-TVJqDat4MAw-unsplash.jpg","50","50","24679.865","0.103","","",""
"null","","deliberation_confirmation","html-keyboard-response","137","60171","0.0-2.0-46.0-2.0-0.0","","0","0","22","","","","","null","","","","22","","","","","","","","","","","","","1","","","","","","","","","","24679.968","0.897","","",""
"null","","iti","html-keyboard-response","138","60276","0.0-2.0-46.0-4.0","","0","0","22","","","","","null","","","","22","","","","","","","","","","","","","1","","","","","","","","","","24680.865","3","","",""
"176","","deliberation","html-keyboard-response","139","60455","0.0-2.0-48.0-0.0","","0","0","22","","","","","50","","","","23","","","","","","","H","0","1508","NaN","scramble","1500","1","1","25","16","faces","outdoor_scenes","Stimuli/Experimental_stims/scramble/faces/scrambled_aiony-haust-jmATI5Q_YgY-unsplash.jpg","Stimuli/Experimental_stims/scramble/outdoor_scenes/scrambled_jarrett-kow-1ZOyYPOBn7I-unsplash.jpg","NaN","NaN","24683.865","1508","false","1508",""
"411","","scramble_instruction","html-keyboard-response","140","60868","0.0-2.0-48.0-1.0-0.0","","0","0","22","","","","","50","","","","23","1","25","16","faces","outdoor_scenes","0","","","","","","","1","","","","","","","","","","26191.865","1000","","","0"
"null","","deliberation_confirmation","html-keyboard-response","141","60871","0.0-2.0-48.0-2.0-0.0","","0","0","22","","","","","null","","","","23","","","","","","","","","","","","","1","","","","","","","","","","27191.865","-0.919","","",""
"null","","iti","html-keyboard-response","142","60979","0.0-2.0-48.0-4.0","","0","0","22","","","","","null","","","","23","","","","","","","","","","","","","1","","","","","","","","","","27190.946","1.5","","",""
"216","","deliberation","html-keyboard-response","143","61199","0.0-2.0-50.0-0.0","","0","0","22","","","","","50","","","","24","1","41","15","body_parts","outdoor_scenes","0","I","0","NaN","NaN","original","2000","1","1","41","15","body_parts","outdoor_scenes","Stimuli/Experimental_stims/body_parts/lucaxx-freire-CacZwMexYdk-unsplash.jpg","Stimuli/Experimental_stims/outdoor_scenes/henry-be-NLF6hTe4PAg-unsplash.jpg","50","50","27192.446","0.216","","",""
"null","","deliberation_confirmation","html-keyboard-response","144","61987","0.0-2.0-50.0-2.0-0.0","","0","0","22","","","","","null","","","","24","","","","","","","","","","","","","1","","","","","","","","","","27192.662","0.784","","",""
"null","","iti","html-keyboard-response","145","62090","0.0-2.0-50.0-4.0","","0","0","22","","","","","null","","","","24","","","","","","","","","","","","","1","","","","","","","","","","27193.446","2","","",""
"380","","deliberation","html-keyboard-response","146","62474","0.0-2.0-52.0-0.0","","0","0","22","","","","","50","","","","25","","","","","","","I","0","1676","NaN","scramble","2000","1","1","41","15","body_parts","outdoor_scenes","Stimuli/Experimental_stims/scramble/body_parts/scrambled_lucaxx-freire-CacZwMexYdk-unsplash.jpg","Stimuli/Experimental_stims/scramble/outdoor_scenes/scrambled_henry-be-NLF6hTe4PAg-unsplash.jpg","NaN","NaN","27195.446","1676","false","1676",""
"384","","scramble_instruction","html-keyboard-response","147","62860","0.0-2.0-52.0-1.0-0.0","","0","0","22","","","","","50","","","","25","1","41","15","body_parts","outdoor_scenes","0","","","","","","","1","","","","","","","","","","28871.446","1000","","","0"
"null","","deliberation_confirmation","html-keyboard-response","148","62863","0.0-2.0-52.0-2.0-0.0","","0","0","22","","","","","null","","","","25","","","","","","","","","","","","","1","","","","","","","","","","29871.446","-1.06","","",""
"null","","iti","html-keyboard-response","149","62964","0.0-2.0-52.0-4.0","","0","0","22","","","","","null","","","","25","","","","","","","","","","","","","1","","","","","","","","","","29870.386","2","","",""
"185","","deliberation","html-keyboard-response","150","63152","0.0-2.0-54.0-0.0","","0","0","22","","","","","50","","","","26","1","52","45","objects","body_parts","0","E","0","NaN","NaN","original","1000","1","1","52","45","objects","body_parts","Stimuli/Experimental_stims/objects/fabian-blank-pElSkGRA2NU-unsplash.jpg","Stimuli/Experimental_stims/body_parts/sincerely-media-7TBFwUQA6Xk-unsplash.jpg","50","50","29872.386","0.185","","",""
"null","","deliberation_confirmation","html-keyboard-response","151","63975","0.0-2.0-54.0-2.0-0.0","","0","0","22","","","","","null","","","","26","","","","","","","","","","","","","1","","","","","","","","","","29872.571","0.815","","",""
"null","","iti","html-keyboard-response","152","64082","0.0-2.0-54.0-4.0","","0","0","22","","","","","null","","","","26","","","","","","","","","","","","","1","","","","","","","","","","29873.386","1","","",""
"200","","deliberation","html-keyboard-response","153","64285","0.0-2.0-56.0-0.0","","0","0","22","","","","","50","","","","27","1","56","18","objects","outdoor_scenes","0","G","0","NaN","NaN","original","3500","1","1","56","18","objects","outdoor_scenes","Stimuli/Experimental_stims/objects/jonathan-greenaway-Y4hGgeiFn3s-unsplash.jpg","Stimuli/Experimental_stims/outdoor_scenes/meng-ji-8BH_M-53CyA-unsplash.jpg","50","50","29874.386","0.2","","",""
"null","","deliberation_confirmation","html-keyboard-response","154","65093","0.0-2.0-56.0-2.0-0.0","","0","0","22","","","","","null","","","","27","","","","","","","","","","","","","1","","","","","","","","","","29874.586","0.8","","",""
"null","","iti","html-keyboard-response","155","65202","0.0-2.0-56.0-4.0","","0","0","22","","","","","null","","","","27","","","","","","","","","","","","","1","","","","","","","","","","29875.386","3.5","","",""
"259","","deliberation","html-keyboard-response","156","65462","0.0-2.0-58.0-0.0","","0","0","22","","","","","50","","","","28","1","22","43","outdoor_scenes","body_parts","0","C","0","NaN","NaN","original","1500","2","1","22","43","outdoor_scenes","body_parts","Stimuli/Experimental_stims/outdoor_scenes/stephen-leonardi-gyIRjKPXupE-unsplash.jpg","Stimuli/Experimental_stims/body_parts/megan-menegay-UojxG_BJxnI-unsplash.jpg","50","50","29878.886","0.259","","",""
"null","","deliberation_confirmation","html-keyboard-response","157","66214","0.0-2.0-58.0-2.0-0.0","","0","0","22","","","","","null","","","","28","","","","","","","","","","","","","2","","","","","","","","","","29879.144999999997","0.741","","",""
"null","","iti","html-keyboard-response","158","66324","0.0-2.0-58.0-4.0","","0","0","22","","","","","null","","","","28","","","","","","","","","","","","","2","","","","","","","","","","29879.886","1.5","","",""
"329","","deliberation","html-keyboard-response","159","66657","0.0-2.0-60.0-0.0","","0","0","22","","","","","50","","","","29","1","38","50","body_parts","objects","0","K","0","NaN","NaN","original","3000","2","1","38","50","body_parts","objects","Stimuli/Experimental_stims/body_parts/engin-akyurt-x_3gyC42btc-unsplash.jpg","Stimuli/Experimental_stims/objects/andrew-petrov-TVJqDat4MAw-unsplash.jpg","50","50","29881.386","0.329","","",""
"null","","deliberation_confirmation","html-keyboard-response","160","67338","0.0-2.0-60.0-2.0-0.0","","0","0","22","","","","","null","","","","29","","","","","","","","","","","","","2","","","","","","","","","","29881.715","0.671","","",""
"null","","iti","html-keyboard-response","161","67444","0.0-2.0-60.0-4.0","","0","0","22","","","","","null","","","","29","","","","","","","","","","","","","2","","","","","","","","","","29882.386","3","","",""
"164","","deliberation","html-keyboard-response","162","67611","0.0-2.0-62.0-0.0","","0","0","22","","","","","50","","","","30","","","","","","","A","0","212","NaN","scramble","1000","2","1","13","54","outdoor_scenes","objects","Stimuli/Experimental_stims/scramble/outdoor_scenes/scrambled_ashim-d-silva-S2Q5mdOrrVc-unsplash.jpg","Stimuli/Experimental_stims/scramble/objects/scrambled_jess-bailey-nOeVi8DsN8U-unsplash.jpg","NaN","NaN","29885.386","212","false","212",""
"252","","scramble_instruction","html-keyboard-response","163","67864","0.0-2.0-62.0-1.0-0.0","","0","0","22","","","","","50","","","","30","1","13","54","outdoor_scenes","objects","0","","","","","","","2","","","","","","","","","","30097.386","1000","","","0"
"null","","deliberation_confirmation","html-keyboard-response","164","68412","0.0-2.0-62.0-2.0-0.0","","0","0","22","","","","","null","","","","30","","","","","","","","","","","","","2","","","","","","","","","","31097.386","0.536","","",""
"null","","iti","html-keyboard-response","165","68527","0.0-2.0-62.0-4.0","","0","0","22","","","","","null","","","","30","","","","","","","","","","","","","2","","","","","","","","","","31097.922","1","","",""
"153","","deliberation","html-keyboard-response","166","68682","0.0-2.0-64.0-0.0","","0","0","22","","","","","51","","","","31","0","15","41","outdoor_scenes","body_parts","0","I","0","NaN","NaN","original","1000","2","1","41","15","body_parts","outdoor_scenes","Stimuli/Experimental_stims/body_parts/lucaxx-freire-CacZwMexYdk-unsplash.jpg","Stimuli/Experimental_stims/outdoor_scenes/henry-be-NLF6hTe4PAg-unsplash.jpg","50","50","31098.922","0.153","","",""
"null","","deliberation_confirmation","html-keyboard-response","167","69540","0.0-2.0-64.0-2.0-0.0","","0","0","22","","","","","null","","","","31","","","","","","","","","","","","","2","","","","","","","","","","31099.074999999997","0.847","","",""
"null","","iti","html-keyboard-response","168","69650","0.0-2.0-64.0-4.0","","0","0","22","","","","","null","","","","31","","","","","","","","","","","","","2","","","","","","","","","","31099.922","1","","",""
"0","","deliberation","html-keyboard-response","169","69652","0.0-2.0-66.0-0.0","","0","0","22","","","","","51","","","","32","0","40","30","body_parts","faces","0","F","0","NaN","NaN","original","3500","2","1","30","40","faces","body_parts","Stimuli/Experimental_stims/faces/good-faces-xmSWVeGEnJw-unsplash.jpg","Stimuli/Experimental_stims/body_parts/klara-kulikova-TcUfF24fUMY-unsplash.jpg","50","50","31100.922","0","","",""
"null","","deliberation_confirmation","html-keyboard-response","170","70659","0.0-2.0-66.0-2.0-0.0","","0","0","22","","","","","null","","","","32","","","","","","","","","","","","","2","","","","","","","","","","31100.922","1","","",""
"null","","iti","html-keyboard-response","171","70762","0.0-2.0-66.0-4.0","","0","0","22","","","","","null","","","","32","","","","","","","","","","","","","2","","","","","","","","","","31101.922","3.5","","",""
"188","","deliberation","html-keyboard-response","172","70952","0.0-2.0-68.0-0.0","","0","0","22","","","","","51","","","","33","","","","","","","G","0","1792","NaN","scramble","2000","2","1","56","18","objects","outdoor_scenes","Stimuli/Experimental_stims/scramble/objects/scrambled_jonathan-greenaway-Y4hGgeiFn3s-unsplash.jpg","Stimuli/Experimental_stims/scramble/outdoor_scenes/scrambled_meng-ji-8BH_M-53CyA-unsplash.jpg","NaN","NaN","31105.422","1792","false","1792",""
"316","","scramble_instruction","html-keyboard-response","173","71270","0.0-2.0-68.0-1.0-0.0","","0","0","22","","","","","51","","","","33","0","18","56","outdoor_scenes","objects","0","","","","","","","2","","","","","","","","","","32897.422","1000","","","0"
"null","","deliberation_confirmation","html-keyboard-response","174","71272","0.0-2.0-68.0-2.0-0.0","","0","0","22","","","","","null","","","","33","","","","","","","","","","","","","2","","","","","","","","","","33897.422","-1.108","","",""
"null","","iti","html-keyboard-response","175","71378","0.0-2.0-68.0-4.0","","0","0","22","","","","","null","","","","33","","","","","","","","","","","","","2","","","","","","","","","","33896.314","2","","",""
"175","","deliberation","html-keyboard-response","176","71556","0.0-2.0-70.0-0.0","","0","0","22","","","","","51","","","","34","0","59","26","objects","faces","0","J","0","NaN","NaN","original","1000","2","1","26","59","faces","objects","Stimuli/Experimental_stims/faces/art-hauntington-jzY0KRJopEI-unsplash.jpg","Stimuli/Experimental_stims/objects/ronaldo-arthur-vidal-Cdz_lvnl37k-unsplash.jpg","50","50","33898.314","0.175","","",""
"null","","deliberation_confirmation","html-keyboard-response","177","72391","0.0-2.0-70.0-2.0-0.0","","0","0","22","","","","","null","","","","34","","","","","","","","","","","","","2","","","","","","","","","","33898.489","0.825","","",""
"null","","iti","html-keyboard-response","178","72502","0.0-2.0-70.0-4.0","","0","0","22","","","","","null","","","","34","","","","","","","","","","","","","2","","","","","","","","","","33899.314","1","","",""
"63","","deliberation","html-keyboard-response","179","72568","0.0-2.0-72.0-0.0","","0","0","22","","","","","51","","","","35","","","","","","","L","0","1510","NaN","scramble","1000","2","1","47","24","body_parts","faces","Stimuli/Experimental_stims/scramble/body_parts/scrambled_tucker-good-36skLT5jZcc-unsplash.jpg","Stimuli/Experimental_stims/scramble/faces/scrambled_abstral-official-cyOKLSgkgCE-unsplash.jpg","NaN","NaN","33900.314","1510","false","1510",""
"276","","scramble_instruction","html-keyboard-response","180","72845","0.0-2.0-72.0-1.0-0.0","","0","0","22","","","","","51","","","","35","0","24","47","faces","body_parts","0","","","","","","","2","","","","","","","","","","35410.314","1000","","","0"
"null","","deliberation_confirmation","html-keyboard-response","181","72848","0.0-2.0-72.0-2.0-0.0","","0","0","22","","","","","null","","","","35","","","","","","","","","","","","","2","","","","","","","","","","36410.314","-0.786","","",""
"null","","iti","html-keyboard-response","182","72955","0.0-2.0-72.0-4.0","","0","0","22","","","","","null","","","","35","","","","","","","","","","","","","2","","","","","","","","","","36409.528","1","","",""
"162","","deliberation","html-keyboard-response","183","73121","0.0-2.0-74.0-0.0","","0","0","22","","","","","51","","","","36","","","","","","","K","0","1982","NaN","scramble","3000","2","1","38","50","body_parts","objects","Stimuli/Experimental_stims/scramble/body_parts/scrambled_engin-akyurt-x_3gyC42btc-unsplash.jpg","Stimuli/Experimental_stims/scramble/objects/scrambled_andrew-petrov-TVJqDat4MAw-unsplash.jpg","NaN","NaN","36410.528","1982","false","1982",""
"299","","scramble_instruction","html-keyboard-response","184","73422","0.0-2.0-74.0-1.0-0.0","","0","0","22","","","","","51","","","","36","0","50","38","objects","body_parts","0","","","","","","","2","","","","","","","","","","38392.528","1000","","","0"
"null","","deliberation_confirmation","html-keyboard-response","185","73424","0.0-2.0-74.0-2.0-0.0","","0","0","22","","","","","null","","","","36","","","","","","","","","","","","","2","","","","","","","","","","39392.528","-1.281","","",""
"null","","iti","html-keyboard-response","186","73535","0.0-2.0-74.0-4.0","","0","0","22","","","","","null","","","","36","","","","","","","","","","","","","2","","","","","","","","","","39391.246999999996","3","","",""
"167","","deliberation","html-keyboard-response","187","73704","0.0-2.0-76.0-0.0","","0","0","22","","","","","51","","","","37","","","","","","","D","0","1575","NaN","scramble","1500","2","1","53","28","objects","faces","Stimuli/Experimental_stims/scramble/objects/scrambled_insung-yoon-w2JtIQQXoRU-unsplash.jpg","Stimuli/Experimental_stims/scramble/faces/scrambled_erik-lucatero-d2MSDujJl2g-unsplash.jpg","NaN","NaN","39394.246999999996","1575","false","1575",""
"278","","scramble_instruction","html-keyboard-response","188","73983","0.0-2.0-76.0-1.0-0.0","","0","0","22","","","","","51","","","","37","0","28","53","faces","objects","0","","","","","","","2","","","","","","","","","","40969.246999999996","1000","","","0"
"null","","deliberation_confirmation","html-keyboard-response","189","73986","0.0-2.0-76.0-2.0-0.0","","0","0","22","","","","","null","","","","37","","","","","","","","","","","","","2","","","","","","","","","","41969.246999999996","-0.853","","",""
"null","","iti","html-keyboard-response","190","74091","0.0-2.0-76.0-4.0","","0","0","22","","","","","null","","","","37","","","","","","","","","","","","","2","","","","","","","","","","41968.39399999999","1.5","","",""
"159","","deliberation","html-keyboard-response","191","74253","0.0-2.0-78.0-0.0","","0","0","22","","","","","51","","","","38","0","54","13","objects","outdoor_scenes","0","A","0","NaN","NaN","original","1000","2","1","13","54","outdoor_scenes","objects","Stimuli/Experimental_stims/outdoor_scenes/ashim-d-silva-S2Q5mdOrrVc-unsplash.jpg","Stimuli/Experimental_stims/objects/jess-bailey-nOeVi8DsN8U-unsplash.jpg","50","50","41969.89399999999","0.159","","",""
"null","","deliberation_confirmation","html-keyboard-response","192","75103","0.0-2.0-78.0-2.0-0.0","","0","0","22","","","","","null","","","","38","","","","","","","","","","","","","2","","","","","","","","","","41970.05299999999","0.841","","",""
"null","","iti","html-keyboard-response","193","75214","0.0-2.0-78.0-4.0","","0","0","22","","","","","null","","","","38","","","","","","","","","","","","","2","","","","","","","","","","41970.89399999999","1","","",""
"254","","deliberation","html-keyboard-response","194","75471","0.0-2.0-80.0-0.0","","0","0","22","","","","","51","","","","39","0","45","52","body_parts","objects","0","E","0","NaN","NaN","original","3000","2","1","52","45","objects","body_parts","Stimuli/Experimental_stims/objects/fabian-blank-pElSkGRA2NU-unsplash.jpg","Stimuli/Experimental_stims/body_parts/sincerely-media-7TBFwUQA6Xk-unsplash.jpg","50","50","41971.89399999999","0.254","","",""
"null","","deliberation_confirmation","html-keyboard-response","195","76228","0.0-2.0-80.0-2.0-0.0","","0","0","22","","","","","null","","","","39","","","","","","","","","","","","","2","","","","","","","","","","41972.147999999994","0.746","","",""
"null","","iti","html-keyboard-response","196","76338","0.0-2.0-80.0-4.0","","0","0","22","","","","","null","","","","39","","","","","","","","","","","","","2","","","","","","","","","","41972.89399999999","3","","",""
"45","","deliberation","html-keyboard-response","197","76385","0.0-2.0-82.0-0.0","","0","0","22","","","","","51","","","","40","0","24","47","faces","body_parts","0","L","0","NaN","NaN","original","1500","2","1","47","24","body_parts","faces","Stimuli/Experimental_stims/body_parts/tucker-good-36skLT5jZcc-unsplash.jpg","Stimuli/Experimental_stims/faces/abstral-official-cyOKLSgkgCE-unsplash.jpg","50","50","41975.89399999999","0.045","","",""
"null","","deliberation_confirmation","html-keyboard-response","198","77351","0.0-2.0-82.0-2.0-0.0","","0","0","22","","","","","null","","","","40","","","","","","","","","","","","","2","","","","","","","","","","41975.93899999999","0.955","","",""
"null","","iti","html-keyboard-response","199","77460","0.0-2.0-82.0-4.0","","0","0","22","","","","","null","","","","40","","","","","","","","","","","","","2","","","","","","","","","","41976.89399999999","1.5","","",""
"88","","deliberation","html-keyboard-response","200","77552","0.0-2.0-84.0-0.0","","0","0","22","","","","","51","","","","41","","","","","","","I","0","1253","NaN","scramble","1500","2","1","41","15","body_parts","outdoor_scenes","Stimuli/Experimental_stims/scramble/body_parts/scrambled_lucaxx-freire-CacZwMexYdk-unsplash.jpg","Stimuli/Experimental_stims/scramble/outdoor_scenes/scrambled_henry-be-NLF6hTe4PAg-unsplash.jpg","NaN","NaN","41978.39399999999","1253","false","1253",""
"257","","scramble_instruction","html-keyboard-response","201","77810","0.0-2.0-84.0-1.0-0.0","","0","0","22","","","","","51","","","","41","0","15","41","outdoor_scenes","body_parts","0","","","","","","","2","","","","","","","","","","43231.39399999999","1000","","","0"
"null","","deliberation_confirmation","html-keyboard-response","202","77813","0.0-2.0-84.0-2.0-0.0","","0","0","22","","","","","null","","","","41","","","","","","","","","","","","","2","","","","","","","","","","44231.39399999999","-0.51","","",""
"null","","iti","html-keyboard-response","203","77922","0.0-2.0-84.0-4.0","","0","0","22","","","","","null","","","","41","","","","","","","","","","","","","2","","","","","","","","","","44230.88399999999","1.5","","",""
"188","","deliberation","html-keyboard-response","204","78114","0.0-2.0-86.0-0.0","","0","0","22","","","","","51","","","","42","","","","","","","F","0","1901","NaN","scramble","2000","2","1","30","40","faces","body_parts","Stimuli/Experimental_stims/scramble/faces/scrambled_good-faces-xmSWVeGEnJw-unsplash.jpg","Stimuli/Experimental_stims/scramble/body_parts/scrambled_klara-kulikova-TcUfF24fUMY-unsplash.jpg","NaN","NaN","44232.38399999999","1901","false","1901",""
"288","","scramble_instruction","html-keyboard-response","205","78404","0.0-2.0-86.0-1.0-0.0","","0","0","22","","","","","51","","","","42","0","40","30","body_parts","faces","0","","","","","","","2","","","","","","","","","","46133.38399999999","1000","","","0"
"null","","deliberation_confirmation","html-keyboard-response","206","78407","0.0-2.0-86.0-2.0-0.0","","0","0","22","","","","","null","","","","42","","","","","","","","","","","","","2","","","","","","","","","","47133.38399999999","-1.189","","",""
"null","","iti","html-keyboard-response","207","78514","0.0-2.0-86.0-4.0","","0","0","22","","","","","null","","","","42","","","","","","","","","","","","","2","","","","","","","","","","47132.19499999999","2","","",""
"193","","deliberation","html-keyboard-response","208","78710","0.0-2.0-88.0-0.0","","0","0","22","","","","","51","","","","43","","","","","","","C","0","1564","NaN","scramble","1000","2","1","22","43","outdoor_scenes","body_parts","Stimuli/Experimental_stims/scramble/outdoor_scenes/scrambled_stephen-leonardi-gyIRjKPXupE-unsplash.jpg","Stimuli/Experimental_stims/scramble/body_parts/scrambled_megan-menegay-UojxG_BJxnI-unsplash.jpg","NaN","NaN","47134.19499999999","1564","false","1564",""
"287","","scramble_instruction","html-keyboard-response","209","79000","0.0-2.0-88.0-1.0-0.0","","0","0","22","","","","","51","","","","43","0","43","22","body_parts","outdoor_scenes","0","","","","","","","2","","","","","","","","","","48698.19499999999","1000","","","0"
"null","","deliberation_confirmation","html-keyboard-response","210","79003","0.0-2.0-88.0-2.0-0.0","","0","0","22","","","","","null","","","","43","","","","","","","","","","","","","2","","","","","","","","","","49698.19499999999","-0.851","","",""
"null","","iti","html-keyboard-response","211","79108","0.0-2.0-88.0-4.0","","0","0","22","","","","","null","","","","43","","","","","","","","","","","","","2","","","","","","","","","","49697.34399999999","1","","",""
"159","","deliberation","html-keyboard-response","212","79270","0.0-2.0-90.0-0.0","","0","0","22","","","","","51","","","","44","","","","","","","B","0","1948","NaN","scramble","3000","2","1","20","32","outdoor_scenes","faces","Stimuli/Experimental_stims/scramble/outdoor_scenes/scrambled_samsommer-vddccTqwal8-unsplash.jpg","Stimuli/Experimental_stims/scramble/faces/scrambled_justin-chen-J7Cf1Gch49E-unsplash.jpg","NaN","NaN","49698.34399999999","1948","false","1948",""
"285","","scramble_instruction","html-keyboard-response","213","79557","0.0-2.0-90.0-1.0-0.0","","0","0","22","","","","","51","","","","44","0","32","20","faces","outdoor_scenes","0","","","","","","","2","","","","","","","","","","51646.34399999999","1000","","","0"
"null","","deliberation_confirmation","html-keyboard-response","214","79560","0.0-2.0-90.0-2.0-0.0","","0","0","22","","","","","null","","","","44","","","","","","","","","","","","","2","","","","","","","","","","52646.34399999999","-1.233","","",""
"null","","iti","html-keyboard-response","215","79666","0.0-2.0-90.0-4.0","","0","0","22","","","","","null","","","","44","","","","","","","","","","","","","2","","","","","","","","","","52645.11099999999","3","","",""
"201","","deliberation","html-keyboard-response","216","79870","0.0-2.0-92.0-0.0","","0","0","22","","","","","51","","","","45","","","","","","","H","0","1903","NaN","scramble","1500","2","1","25","16","faces","outdoor_scenes","Stimuli/Experimental_stims/scramble/faces/scrambled_aiony-haust-jmATI5Q_YgY-unsplash.jpg","Stimuli/Experimental_stims/scramble/outdoor_scenes/scrambled_jarrett-kow-1ZOyYPOBn7I-unsplash.jpg","NaN","NaN","52648.11099999999","1903","false","1903",""
"308","","scramble_instruction","html-keyboard-response","217","80180","0.0-2.0-92.0-1.0-0.0","","0","0","22","","","","","51","","","","45","0","16","25","outdoor_scenes","faces","0","","","","","","","2","","","","","","","","","","54551.11099999999","1000","","","0"
"null","","deliberation_confirmation","html-keyboard-response","218","80182","0.0-2.0-92.0-2.0-0.0","","0","0","22","","","","","null","","","","45","","","","","","","","","","","","","2","","","","","","","","","","55551.11099999999","-1.211","","",""
"null","","iti","html-keyboard-response","219","80291","0.0-2.0-92.0-4.0","","0","0","22","","","","","null","","","","45","","","","","","","","","","","","","2","","","","","","","","","","55549.89999999999","1.5","","",""
"166","","deliberation","html-keyboard-response","220","80459","0.0-2.0-94.0-0.0","","0","0","22","","","","","51","","","","46","0","32","20","faces","outdoor_scenes","0","B","0","NaN","NaN","original","2000","2","1","20","32","outdoor_scenes","faces","Stimuli/Experimental_stims/outdoor_scenes/samsommer-vddccTqwal8-unsplash.jpg","Stimuli/Experimental_stims/faces/justin-chen-J7Cf1Gch49E-unsplash.jpg","50","50","55551.39999999999","0.166","","",""
"null","","deliberation_confirmation","html-keyboard-response","221","81298","0.0-2.0-94.0-2.0-0.0","","0","0","22","","","","","null","","","","46","","","","","","","","","","","","","2","","","","","","","","","","55551.565999999984","0.834","","",""
"null","","iti","html-keyboard-response","222","81403","0.0-2.0-94.0-4.0","","0","0","22","","","","","null","","","","46","","","","","","","","","","","","","2","","","","","","","","","","55552.39999999999","2","","",""
"274","","deliberation","html-keyboard-response","223","81679","0.0-2.0-96.0-0.0","","0","0","22","","","","","51","","","","47","0","18","56","outdoor_scenes","objects","0","G","0","NaN","NaN","original","1000","2","1","56","18","objects","outdoor_scenes","Stimuli/Experimental_stims/objects/jonathan-greenaway-Y4hGgeiFn3s-unsplash.jpg","Stimuli/Experimental_stims/outdoor_scenes/meng-ji-8BH_M-53CyA-unsplash.jpg","50","50","55554.39999999999","0.274","","",""
"null","","deliberation_confirmation","html-keyboard-response","224","82410","0.0-2.0-96.0-2.0-0.0","","0","0","22","","","","","null","","","","47","","","","","","","","","","","","","2","","","","","","","","","","55554.673999999985","0.726","","",""
"null","","iti","html-keyboard-response","225","82515","0.0-2.0-96.0-4.0","","0","0","22","","","","","null","","","","47","","","","","","","","","","","","","2","","","","","","","","","","55555.39999999999","1","","",""
"222","","deliberation","html-keyboard-response","226","82739","0.0-2.0-98.0-0.0","","0","0","22","","","","","51","","","","48","0","28","53","faces","objects","0","D","0","NaN","NaN","original","2000","2","1","53","28","objects","faces","Stimuli/Experimental_stims/objects/insung-yoon-w2JtIQQXoRU-unsplash.jpg","Stimuli/Experimental_stims/faces/erik-lucatero-d2MSDujJl2g-unsplash.jpg","50","50","55556.39999999999","0.222","","",""
"null","","deliberation_confirmation","html-keyboard-response","227","83522","0.0-2.0-98.0-2.0-0.0","","0","0","22","","","","","null","","","","48","","","","","","","","","","","","","2","","","","","","","","","","55556.62199999999","0.778","","",""
"null","","iti","html-keyboard-response","228","83624","0.0-2.0-98.0-4.0","","0","0","22","","","","","null","","","","48","","","","","","","","","","","","","2","","","","","","","","","","55557.39999999999","2","","",""
"316","","deliberation","html-keyboard-response","229","83942","0.0-2.0-100.0-0.0","","0","0","22","","","","","51","","","","49","","","","","","","J","0","1515","NaN","scramble","1000","2","1","26","59","faces","objects","Stimuli/Experimental_stims/scramble/faces/scrambled_art-hauntington-jzY0KRJopEI-unsplash.jpg","Stimuli/Experimental_stims/scramble/objects/scrambled_ronaldo-arthur-vidal-Cdz_lvnl37k-unsplash.jpg","NaN","NaN","55559.39999999999","1515","false","1515",""
"282","","scramble_instruction","html-keyboard-response","230","84227","0.0-2.0-100.0-1.0-0.0","","0","0","22","","","","","51","","","","49","0","59","26","objects","faces","0","","","","","","","2","","","","","","","","","","57074.39999999999","1000","","","0"
"null","","deliberation_confirmation","html-keyboard-response","231","84230","0.0-2.0-100.0-2.0-0.0","","0","0","22","","","","","null","","","","49","","","","","","","","","","","","","2","","","","","","","","","","58074.39999999999","-0.797","","",""
"null","","iti","html-keyboard-response","232","84335","0.0-2.0-100.0-4.0","","0","0","22","","","","","null","","","","49","","","","","","","","","","","","","2","","","","","","","","","","58073.60299999999","1","","",""
"176","","deliberation","html-keyboard-response","233","84515","0.0-2.0-102.0-0.0","","0","0","22","","","","","51","","","","50","0","16","25","outdoor_scenes","faces","0","H","0","NaN","NaN","original","1500","2","1","25","16","faces","outdoor_scenes","Stimuli/Experimental_stims/faces/aiony-haust-jmATI5Q_YgY-unsplash.jpg","Stimuli/Experimental_stims/outdoor_scenes/jarrett-kow-1ZOyYPOBn7I-unsplash.jpg","50","50","58074.60299999999","0.176","","",""
"null","","deliberation_confirmation","html-keyboard-response","234","85350","0.0-2.0-102.0-2.0-0.0","","0","0","22","","","","","null","","","","50","","","","","","","","","","","","","2","","","","","","","","","","58074.77899999999","0.824","","",""
"null","","iti","html-keyboard-response","235","85463","0.0-2.0-102.0-4.0","","0","0","22","","","","","null","","","","50","","","","","","","","","","","","","2","","","","","","","","","","58075.60299999999","1.5","","",""
"200","","deliberation","html-keyboard-response","236","85665","0.0-2.0-104.0-0.0","","0","0","22","","","","","51","","","","51","","","","","","","E","0","1753","NaN","scramble","3500","2","1","52","45","objects","body_parts","Stimuli/Experimental_stims/scramble/objects/scrambled_fabian-blank-pElSkGRA2NU-unsplash.jpg","Stimuli/Experimental_stims/scramble/body_parts/scrambled_sincerely-media-7TBFwUQA6Xk-unsplash.jpg","NaN","NaN","58077.10299999999","1753","false","1753",""
"288","","scramble_instruction","html-keyboard-response","237","85954","0.0-2.0-104.0-1.0-0.0","","0","0","22","","","","","51","","","","51","0","45","52","body_parts","objects","0","","","","","","","2","","","","","","","","","","59830.10299999999","1000","","","0"
"null","","deliberation_confirmation","html-keyboard-response","238","85956","0.0-2.0-104.0-2.0-0.0","","0","0","22","","","","","null","","","","51","","","","","","","","","","","","","2","","","","","","","","","","60830.10299999999","-1.041","","",""
"null","","iti","html-keyboard-response","239","86059","0.0-2.0-104.0-4.0","","0","0","22","","","","","null","","","","51","","","","","","","","","","","","","2","","","","","","","","","","60829.06199999999","3.5","","",""
"3773","","deliberation_block_over","html-keyboard-response","240","89833","0.0-2.0-104.0-6.0-0.0","","0","0","22","","","","","83","","","","51","","","","","","","","","","","","","","","","","","","","","","","","","","",""
"1166","","start_run","html-keyboard-response","241","91000","0.0-2.0-104.0-6.0-1.0","","0","0","22","","","","","84","","","","","","","","","","","","","","","","","","","","","","","","","","","","","","",""
"407","","deliberation","html-keyboard-response","242","91410","0.0-2.0-106.0-0.0","","0","0","22","","","","","50","","","","52","1","56","18","objects","outdoor_scenes","0","G","0","NaN","NaN","original","1500","3","2","56","18","objects","outdoor_scenes","Stimuli/Experimental_stims/objects/jonathan-greenaway-Y4hGgeiFn3s-unsplash.jpg","Stimuli/Experimental_stims/outdoor_scenes/meng-ji-8BH_M-53CyA-unsplash.jpg","50","50","0","0.407","","",""
"null","","deliberation_confirmation","html-keyboard-response","243","92013","0.0-2.0-106.0-2.0-0.0","","0","0","22","","","","","null","","","","52","","","","","","","","","","","","","3","","","","","","","","","","0.407","0.593","","",""
"null","","iti","html-keyboard-response","244","92127","0.0-2.0-106.0-4.0","","0","0","22","","","","","null","","","","52","","","","","","","","","","","","","3","","","","","","","","","","1","1.5","","",""
"49","","deliberation","html-keyboard-response","245","92178","0.0-2.0-108.0-0.0","","0","0","22","","","","","50","","","","53","","","","","","","B","0","966","NaN","scramble","1500","3","2","20","32","outdoor_scenes","faces","Stimuli/Experimental_stims/scramble/outdoor_scenes/scrambled_samsommer-vddccTqwal8-unsplash.jpg","Stimuli/Experimental_stims/scramble/faces/scrambled_justin-chen-J7Cf1Gch49E-unsplash.jpg","NaN","NaN","2.5","966","false","966",""
"232","","scramble_instruction","html-keyboard-response","246","92413","0.0-2.0-108.0-1.0-0.0","","0","0","22","","","","","50","","","","53","1","20","32","outdoor_scenes","faces","0","","","","","","","3","","","","","","","","","","968.5","1000","","","0"
"null","","deliberation_confirmation","html-keyboard-response","247","92415","0.0-2.0-108.0-2.0-0.0","","0","0","22","","","","","null","","","","53","","","","","","","","","","","","","3","","","","","","","","","","1968.5","-0.198","","",""
"null","","iti","html-keyboard-response","248","92526","0.0-2.0-108.0-4.0","","0","0","22","","","","","null","","","","53","","","","","","","","","","","","","3","","","","","","","","","","1968.302","1.5","","",""
"117","","deliberation","html-keyboard-response","249","92646","0.0-2.0-110.0-0.0","","0","0","22","","","","","50","","","","54","1","22","43","outdoor_scenes","body_parts","0","C","0","NaN","NaN","original","1000","3","2","22","43","outdoor_scenes","body_parts","Stimuli/Experimental_stims/outdoor_scenes/stephen-leonardi-gyIRjKPXupE-unsplash.jpg","Stimuli/Experimental_stims/body_parts/megan-menegay-UojxG_BJxnI-unsplash.jpg","50","50","1969.802","0.117","","",""
"null","","deliberation_confirmation","html-keyboard-response","250","93543","0.0-2.0-110.0-2.0-0.0","","0","0","22","","","","","null","","","","54","","","","","","","","","","","","","3","","","","","","","","","","1969.9189999999999","0.883","","",""
"null","","iti","html-keyboard-response","251","93654","0.0-2.0-110.0-4.0","","0","0","22","","","","","null","","","","54","","","","","","","","","","","","","3","","","","","","","","","","1970.802","1","","",""
"197","","deliberation","html-keyboard-response","252","93854","0.0-2.0-112.0-0.0","","0","0","22","","","","","50","","","","55","","","","","","","J","0","1385","NaN","scramble","2000","3","2","26","59","faces","objects","Stimuli/Experimental_stims/scramble/faces/scrambled_art-hauntington-jzY0KRJopEI-unsplash.jpg","Stimuli/Experimental_stims/scramble/objects/scrambled_ronaldo-arthur-vidal-Cdz_lvnl37k-unsplash.jpg","NaN","NaN","1971.802","1385","false","1385",""
"345","","scramble_instruction","html-keyboard-response","253","94201","0.0-2.0-112.0-1.0-0.0","","0","0","22","","","","","50","","","","55","1","26","59","faces","objects","0","","","","","","","3","","","","","","","","","","3356.8019999999997","1000","","","0"
"null","","deliberation_confirmation","html-keyboard-response","254","94204","0.0-2.0-112.0-2.0-0.0","","0","0","22","","","","","null","","","","55","","","","","","","","","","","","","3","","","","","","","","","","4356.802","-0.73","","",""
"null","","iti","html-keyboard-response","255","94308","0.0-2.0-112.0-4.0","","0","0","22","","","","","null","","","","55","","","","","","","","","","","","","3","","","","","","","","","","4356.072","2","","",""
"270","","deliberation","html-keyboard-response","256","94582","0.0-2.0-114.0-0.0","","0","0","22","","","","","50","","","","56","","","","","","","D","0","1576","NaN","scramble","2000","3","2","53","28","objects","faces","Stimuli/Experimental_stims/scramble/objects/scrambled_insung-yoon-w2JtIQQXoRU-unsplash.jpg","Stimuli/Experimental_stims/scramble/faces/scrambled_erik-lucatero-d2MSDujJl2g-unsplash.jpg","NaN","NaN","4358.072","1576","false","1576",""
"313","","scramble_instruction","html-keyboard-response","257","94897","0.0-2.0-114.0-1.0-0.0","","0","0","22","","","","","50","","","","56","1","53","28","objects","faces","0","","","","","","","3","","","","","","","","","","5934.072","1000","","","0"
"null","","deliberation_confirmation","html-keyboard-response","258","94899","0.0-2.0-114.0-2.0-0.0","","0","0","22","","","","","null","","","","56","","","","","","","","","","","","","3","","","","","","","","","","6934.072","-0.889","","",""
"null","","iti","html-keyboard-response","259","95005","0.0-2.0-114.0-4.0","","0","0","22","","","","","null","","","","56","","","","","","","","","","","","","3","","","","","","","","","","6933.183","2","","",""
"221","","deliberation","html-keyboard-response","260","95228","0.0-2.0-116.0-0.0","","0","0","22","","","","","50","","","","57","1","25","16","faces","outdoor_scenes","0","H","0","NaN","NaN","original","3000","3","2","25","16","faces","outdoor_scenes","Stimuli/Experimental_stims/faces/aiony-haust-jmATI5Q_YgY-unsplash.jpg","Stimuli/Experimental_stims/outdoor_scenes/jarrett-kow-1ZOyYPOBn7I-unsplash.jpg","50","50","6935.183","0.221","","",""
"null","","deliberation_confirmation","html-keyboard-response","261","96011","0.0-2.0-116.0-2.0-0.0","","0","0","22","","","","","null","","","","57","","","","","","","","","","","","","3","","","","","","","","","","6935.4039999999995","0.779","","",""
"null","","iti","html-keyboard-response","262","96114","0.0-2.0-116.0-4.0","","0","0","22","","","","","null","","","","57","","","","","","","","","","","","","3","","","","","","","","","","6936.183","3","","",""
"4","","deliberation","html-keyboard-response","263","96119","0.0-2.0-118.0-0.0","","0","0","22","","","","","50","","","","58","1","53","28","objects","faces","0","D","0","NaN","NaN","original","1000","3","2","53","28","objects","faces","Stimuli/Experimental_stims/objects/insung-yoon-w2JtIQQXoRU-unsplash.jpg","Stimuli/Experimental_stims/faces/erik-lucatero-d2MSDujJl2g-unsplash.jpg","50","50","6939.183","0.004","","",""
"null","","deliberation_confirmation","html-keyboard-response","264","97118","0.0-2.0-118.0-2.0-0.0","","0","0","22","","","","","null","","","","58","","","","","","","","","","","","","3","","","","","","","","","","6939.187","0.996","","",""
"null","","iti","html-keyboard-response","265","97230","0.0-2.0-118.0-4.0","","0","0","22","","","","","null","","","","58","","","","","","","","","","","","","3","","","","","","","","","","6940.183","1","","",""
"352","","deliberation","html-keyboard-response","266","97586","0.0-2.0-120.0-0.0","","0","0","22","","","","","50","","","","59","1","26","59","faces","objects","0","J","0","NaN","NaN","original","1000","3","2","26","59","faces","objects","Stimuli/Experimental_stims/faces/art-hauntington-jzY0KRJopEI-unsplash.jpg","Stimuli/Experimental_stims/objects/ronaldo-arthur-vidal-Cdz_lvnl37k-unsplash.jpg","50","50","6941.183","0.352","","",""
"null","","deliberation_confirmation","html-keyboard-response","267","98245","0.0-2.0-120.0-2.0-0.0","","0","0","22","","","","","null","","","","59","","","","","","","","","","","","","3","","","","","","","","","","6941.535","0.648","","",""
"null","","iti","html-keyboard-response","268","98358","0.0-2.0-120.0-4.0","","0","0","22","","","","","null","","","","59","","","","","","","","","","","","","3","","","","","","","","","","6942.183","1","","",""
"225","","deliberation","html-keyboard-response","269","98587","0.0-2.0-122.0-0.0","","0","0","22","","","","","50","","","","60","1","20","32","outdoor_scenes","faces","0","B","0","NaN","NaN","original","3500","3","2","20","32","outdoor_scenes","faces","Stimuli/Experimental_stims/outdoor_scenes/samsommer-vddccTqwal8-unsplash.jpg","Stimuli/Experimental_stims/faces/justin-chen-J7Cf1Gch49E-unsplash.jpg","50","50","6943.183","0.225","","",""
"null","","deliberation_confirmation","html-keyboard-response","270","99371","0.0-2.0-122.0-2.0-0.0","","0","0","22","","","","","null","","","","60","","","","","","","","","","","","","3","","","","","","","","","","6943.408","0.775","","",""
"null","","iti","html-keyboard-response","271","99476","0.0-2.0-122.0-4.0","","0","0","22","","","","","null","","","","60","","","","","","","","","","","","","3","","","","","","","","","","6944.183","3.5","","",""
"249","","deliberation","html-keyboard-response","272","99729","0.0-2.0-124.0-0.0","","0","0","22","","","","","50","","","","61","","","","","","","I","0","1399","NaN","scramble","1500","3","2","41","15","body_parts","outdoor_scenes","Stimuli/Experimental_stims/scramble/body_parts/scrambled_lucaxx-freire-CacZwMexYdk-unsplash.jpg","Stimuli/Experimental_stims/scramble/outdoor_scenes/scrambled_henry-be-NLF6hTe4PAg-unsplash.jpg","NaN","NaN","6947.683","1399","false","1399",""
"280","","scramble_instruction","html-keyboard-response","273","100011","0.0-2.0-124.0-1.0-0.0","","0","0","22","","","","","50","","","","61","1","41","15","body_parts","outdoor_scenes","0","","","","","","","3","","","","","","","","","","8346.683","1000","","","0"
"null","","deliberation_confirmation","html-keyboard-response","274","100014","0.0-2.0-124.0-2.0-0.0","","0","0","22","","","","","null","","","","61","","","","","","","","","","","","","3","","","","","","","","","","9346.683","-0.679","","",""
"null","","iti","html-keyboard-response","275","100117","0.0-2.0-124.0-4.0","","0","0","22","","","","","null","","","","61","","","","","","","","","","","","","3","","","","","","","","","","9346.004","1.5","","",""
"175","","deliberation","html-keyboard-response","276","100294","0.0-2.0-126.0-0.0","","0","0","22","","","","","50","","","","62","1","47","24","body_parts","faces","0","L","0","NaN","NaN","original","2000","3","2","47","24","body_parts","faces","Stimuli/Experimental_stims/body_parts/tucker-good-36skLT5jZcc-unsplash.jpg","Stimuli/Experimental_stims/faces/abstral-official-cyOKLSgkgCE-unsplash.jpg","50","50","9347.504","0.175","","",""
"null","","deliberation_confirmation","html-keyboard-response","277","101125","0.0-2.0-126.0-2.0-0.0","","0","0","22","","","","","null","","","","62","","","","","","","","","","","","","3","","","","","","","","","","9347.679","0.825","","",""
"null","","iti","html-keyboard-response","278","101234","0.0-2.0-126.0-4.0","","0","0","22","","","","","null","","","","62","","","","","","","","","","","","","3","","","","","","","","","","9348.504","2","","",""
"34","","deliberation","html-keyboard-response","279","101270","0.0-2.0-128.0-0.0","","0","0","22","","","","","50","","","","63","","","","","","","A","0","1647","NaN","scramble","3500","3","2","13","54","outdoor_scenes","objects","Stimuli/Experimental_stims/scramble/outdoor_scenes/scrambled_ashim-d-silva-S2Q5mdOrrVc-unsplash.jpg","Stimuli/Experimental_stims/scramble/objects/scrambled_jess-bailey-nOeVi8DsN8U-unsplash.jpg","NaN","NaN","9350.504","1647","false","1647",""
"333","","scramble_instruction","html-keyboard-response","280","101605","0.0-2.0-128.0-1.0-0.0","","0","0","22","","","","","50","","","","63","1","13","54","outdoor_scenes","objects","0","","","","","","","3","","","","","","","","","","10997.504","1000","","","0"
"null","","deliberation_confirmation","html-keyboard-response","281","101608","0.0-2.0-128.0-2.0-0.0","","0","0","22","","","","","null","","","","63","","","","","","","","","","","","","3","","","","","","","","","","11997.504","-0.98","","",""
"null","","iti","html-keyboard-response","282","101714","0.0-2.0-128.0-4.0","","0","0","22","","","","","null","","","","63","","","","","","","","","","","","","3","","","","","","","","","","11996.524000000001","3.5","","",""
"167","","deliberation","html-keyboard-response","283","101885","0.0-2.0-130.0-0.0","","0","0","22","","","","","50","","","","64","1","52","45","objects","body_parts","0","E","0","NaN","NaN","original","1500","3","2","52","45","objects","body_parts","Stimuli/Experimental_stims/objects/fabian-blank-pElSkGRA2NU-unsplash.jpg","Stimuli/Experimental_stims/body_parts/sincerely-media-7TBFwUQA6Xk-unsplash.jpg","50","50","12000.024000000001","0.167","","",""
"null","","deliberation_confirmation","html-keyboard-response","284","102722","0.0-2.0-130.0-2.0-0.0","","0","0","22","","","","","null","","","","64","","","","","","","","","","","","","3","","","","","","","","","","12000.191","0.833","","",""
"null","","iti","html-keyboard-response","285","102827","0.0-2.0-130.0-4.0","","0","0","22","","","","","null","","","","64","","","","","","","","","","","","","3","","","","","","","","","","12001.024000000001","1.5","","",""
"54","","deliberation","html-keyboard-response","286","102884","0.0-2.0-132.0-0.0","","0","0","22","","","","","50","","","","65","","","","","","","K","0","123","NaN","scramble","3000","3","2","38","50","body_parts","objects","Stimuli/Experimental_stims/scramble/body_parts/scrambled_engin-akyurt-x_3gyC42btc-unsplash.jpg","Stimuli/Experimental_stims/scramble/objects/scrambled_andrew-petrov-TVJqDat4MAw-unsplash.jpg","NaN","NaN","12002.524000000001","123","false","123",""
"370","","scramble_instruction","html-keyboard-response","287","103256","0.0-2.0-132.0-1.0-0.0","","0","0","22","","","","","50","","","","65","1","38","50","body_parts","objects","0","","","","","","","3","","","","","","","","","","12125.524000000001","1000","","","0"
"null","","deliberation_confirmation","html-keyboard-response","288","103775","0.0-2.0-132.0-2.0-0.0","","0","0","22","","","","","null","","","","65","","","","","","","","","","","","","3","","","","","","","","","","13125.524000000001","0.507","","",""
"null","","iti","html-keyboard-response","289","103885","0.0-2.0-132.0-4.0","","0","0","22","","","","","null","","","","65","","","","","","","","","","","","","3","","","","","","","","","","13126.031","3","","",""
"77","","deliberation","html-keyboard-response","290","103964","0.0-2.0-134.0-0.0","","0","0","22","","","","","50","","","","66","1","30","40","faces","body_parts","0","F","0","NaN","NaN","original","1000","3","2","30","40","faces","body_parts","Stimuli/Experimental_stims/faces/good-faces-xmSWVeGEnJw-unsplash.jpg","Stimuli/Experimental_stims/body_parts/klara-kulikova-TcUfF24fUMY-unsplash.jpg","50","50","13129.031","0.077","","",""
"null","","deliberation_confirmation","html-keyboard-response","291","104892","0.0-2.0-134.0-2.0-0.0","","0","0","22","","","","","null","","","","66","","","","","","","","","","","","","3","","","","","","","","","","13129.108","0.923","","",""
"null","","iti","html-keyboard-response","292","104993","0.0-2.0-134.0-4.0","","0","0","22","","","","","null","","","","66","","","","","","","","","","","","","3","","","","","","","","","","13130.031","1","","",""
"314","","deliberation","html-keyboard-response","293","105310","0.0-2.0-136.0-0.0","","0","0","22","","","","","50","","","","67","","","","","","","C","0","697","NaN","scramble","1000","3","2","22","43","outdoor_scenes","body_parts","Stimuli/Experimental_stims/scramble/outdoor_scenes/scrambled_stephen-leonardi-gyIRjKPXupE-unsplash.jpg","Stimuli/Experimental_stims/scramble/body_parts/scrambled_megan-menegay-UojxG_BJxnI-unsplash.jpg","NaN","NaN","13131.031","697","false","697",""
"320","","scramble_instruction","html-keyboard-response","294","105631","0.0-2.0-136.0-1.0-0.0","","0","0","22","","","","","50","","","","67","1","22","43","outdoor_scenes","body_parts","0","","","","","","","3","","","","","","","","","","13828.031","1000","","","0"
"null","","deliberation_confirmation","html-keyboard-response","295","105634","0.0-2.0-136.0-2.0-0.0","","0","0","22","","","","","null","","","","67","","","","","","","","","","","","","3","","","","","","","","","","14828.031","-0.017","","",""
"null","","iti","html-keyboard-response","296","105740","0.0-2.0-136.0-4.0","","0","0","22","","","","","null","","","","67","","","","","","","","","","","","","3","","","","","","","","","","14828.014000000001","1","","",""
"210","","deliberation","html-keyboard-response","297","105954","0.0-2.0-138.0-0.0","","0","0","22","","","","","50","","","","68","1","41","15","body_parts","outdoor_scenes","0","I","0","NaN","NaN","original","1500","3","2","41","15","body_parts","outdoor_scenes","Stimuli/Experimental_stims/body_parts/lucaxx-freire-CacZwMexYdk-unsplash.jpg","Stimuli/Experimental_stims/outdoor_scenes/henry-be-NLF6hTe4PAg-unsplash.jpg","50","50","14829.014000000001","0.21","","",""
"null","","deliberation_confirmation","html-keyboard-response","298","106756","0.0-2.0-138.0-2.0-0.0","","0","0","22","","","","","null","","","","68","","","","","","","","","","","","","3","","","","","","","","","","14829.224","0.79","","",""
"null","","iti","html-keyboard-response","299","106868","0.0-2.0-138.0-4.0","","0","0","22","","","","","null","","","","68","","","","","","","","","","","","","3","","","","","","","","","","14830.014000000001","1.5","","",""
"88","","deliberation","html-keyboard-response","300","106959","0.0-2.0-140.0-0.0","","0","0","22","","","","","50","","","","69","1","38","50","body_parts","objects","0","K","0","NaN","NaN","original","3000","3","2","38","50","body_parts","objects","Stimuli/Experimental_stims/body_parts/engin-akyurt-x_3gyC42btc-unsplash.jpg","Stimuli/Experimental_stims/objects/andrew-petrov-TVJqDat4MAw-unsplash.jpg","50","50","14831.514000000001","0.088","","",""
"null","","deliberation_confirmation","html-keyboard-response","301","107887","0.0-2.0-140.0-2.0-0.0","","0","0","22","","","","","null","","","","69","","","","","","","","","","","","","3","","","","","","","","","","14831.602","0.912","","",""
"null","","iti","html-keyboard-response","302","107993","0.0-2.0-140.0-4.0","","0","0","22","","","","","null","","","","69","","","","","","","","","","","","","3","","","","","","","","","","14832.514000000001","3","","",""
"196","","deliberation","html-keyboard-response","303","108192","0.0-2.0-142.0-0.0","","0","0","22","","","","","50","","","","70","1","13","54","outdoor_scenes","objects","0","A","0","NaN","NaN","original","2000","3","2","13","54","outdoor_scenes","objects","Stimuli/Experimental_stims/outdoor_scenes/ashim-d-silva-S2Q5mdOrrVc-unsplash.jpg","Stimuli/Experimental_stims/objects/jess-bailey-nOeVi8DsN8U-unsplash.jpg","50","50","14835.514000000001","0.196","","",""
"null","","deliberation_confirmation","html-keyboard-response","304","109001","0.0-2.0-142.0-2.0-0.0","","0","0","22","","","","","null","","","","70","","","","","","","","","","","","","3","","","","","","","","","","14835.710000000001","0.804","","",""
"null","","iti","html-keyboard-response","305","109107","0.0-2.0-142.0-4.0","","0","0","22","","","","","null","","","","70","","","","","","","","","","","","","3","","","","","","","","","","14836.514000000001","2","","",""
"276","","deliberation","html-keyboard-response","306","109385","0.0-2.0-144.0-0.0","","0","0","22","","","","","50","","","","71","","","","","","","L","0","980","NaN","scramble","1500","3","2","47","24","body_parts","faces","Stimuli/Experimental_stims/scramble/body_parts/scrambled_tucker-good-36skLT5jZcc-unsplash.jpg","Stimuli/Experimental_stims/scramble/faces/scrambled_abstral-official-cyOKLSgkgCE-unsplash.jpg","NaN","NaN","14838.514000000001","980","false","980",""
"280","","scramble_instruction","html-keyboard-response","307","109666","0.0-2.0-144.0-1.0-0.0","","0","0","22","","","","","50","","","","71","1","47","24","body_parts","faces","0","","","","","","","3","","","","","","","","","","15818.514000000001","1000","","","0"
"null","","deliberation_confirmation","html-keyboard-response","308","109669","0.0-2.0-144.0-2.0-0.0","","0","0","22","","","","","null","","","","71","","","","","","","","","","","","","3","","","","","","","","","","16818.514000000003","-0.26","","",""
"null","","iti","html-keyboard-response","309","109771","0.0-2.0-144.0-4.0","","0","0","22","","","","","null","","","","71","","","","","","","","","","","","","3","","","","","","","","","","16818.254000000004","1.5","","",""
"184","","deliberation","html-keyboard-response","310","109957","0.0-2.0-146.0-0.0","","0","0","22","","","","","50","","","","72","","","","","","","F","0","1875","NaN","scramble","1000","3","2","30","40","faces","body_parts","Stimuli/Experimental_stims/scramble/faces/scrambled_good-faces-xmSWVeGEnJw-unsplash.jpg","Stimuli/Experimental_stims/scramble/body_parts/scrambled_klara-kulikova-TcUfF24fUMY-unsplash.jpg","NaN","NaN","16819.754000000004","1875","false","1875",""
"269","","scramble_instruction","html-keyboard-response","311","110227","0.0-2.0-146.0-1.0-0.0","","0","0","22","","","","","50","","","","72","1","30","40","faces","body_parts","0","","","","","","","3","","","","","","","","","","18694.754000000004","1000","","","0"
"null","","deliberation_confirmation","html-keyboard-response","312","110230","0.0-2.0-146.0-2.0-0.0","","0","0","22","","","","","null","","","","72","","","","","","","","","","","","","3","","","","","","","","","","19694.754000000004","-1.144","","",""
"null","","iti","html-keyboard-response","313","110338","0.0-2.0-146.0-4.0","","0","0","22","","","","","null","","","","72","","","","","","","","","","","","","3","","","","","","","","","","19693.610000000004","1","","",""
"167","","deliberation","html-keyboard-response","314","110509","0.0-2.0-148.0-0.0","","0","0","22","","","","","50","","","","73","","","","","","","H","0","692","NaN","scramble","1000","3","2","25","16","faces","outdoor_scenes","Stimuli/Experimental_stims/scramble/faces/scrambled_aiony-haust-jmATI5Q_YgY-unsplash.jpg","Stimuli/Experimental_stims/scramble/outdoor_scenes/scrambled_jarrett-kow-1ZOyYPOBn7I-unsplash.jpg","NaN","NaN","19694.610000000004","692","false","692",""
"274","","scramble_instruction","html-keyboard-response","315","110784","0.0-2.0-148.0-1.0-0.0","","0","0","22","","","","","50","","","","73","1","25","16","faces","outdoor_scenes","0","","","","","","","3","","","","","","","","","","20386.610000000004","1000","","","0"
"null","","deliberation_confirmation","html-keyboard-response","316","110830","0.0-2.0-148.0-2.0-0.0","","0","0","22","","","","","null","","","","73","","","","","","","","","","","","","3","","","","","","","","","","21386.610000000004","0.034","","",""
"null","","iti","html-keyboard-response","317","110937","0.0-2.0-148.0-4.0","","0","0","22","","","","","null","","","","73","","","","","","","","","","","","","3","","","","","","","","","","21386.644000000004","1","","",""
"153","","deliberation","html-keyboard-response","318","111093","0.0-2.0-150.0-0.0","","0","0","22","","","","","50","","","","74","","","","","","","G","0","1215","NaN","scramble","1000","3","2","56","18","objects","outdoor_scenes","Stimuli/Experimental_stims/scramble/objects/scrambled_jonathan-greenaway-Y4hGgeiFn3s-unsplash.jpg","Stimuli/Experimental_stims/scramble/outdoor_scenes/scrambled_meng-ji-8BH_M-53CyA-unsplash.jpg","NaN","NaN","21387.644000000004","1215","false","1215",""
"295","","scramble_instruction","html-keyboard-response","319","111389","0.0-2.0-150.0-1.0-0.0","","0","0","22","","","","","50","","","","74","1","56","18","objects","outdoor_scenes","0","","","","","","","3","","","","","","","","","","22602.644000000004","1000","","","0"
"null","","deliberation_confirmation","html-keyboard-response","320","111392","0.0-2.0-150.0-2.0-0.0","","0","0","22","","","","","null","","","","74","","","","","","","","","","","","","3","","","","","","","","","","23602.644000000004","-0.51","","",""
"null","","iti","html-keyboard-response","321","111503","0.0-2.0-150.0-4.0","","0","0","22","","","","","null","","","","74","","","","","","","","","","","","","3","","","","","","","","","","23602.134000000005","1","","",""
"160","","deliberation","html-keyboard-response","322","111666","0.0-2.0-152.0-0.0","","0","0","22","","","","","50","","","","75","","","","","","","E","0","1476","NaN","scramble","3000","3","2","52","45","objects","body_parts","Stimuli/Experimental_stims/scramble/objects/scrambled_fabian-blank-pElSkGRA2NU-unsplash.jpg","Stimuli/Experimental_stims/scramble/body_parts/scrambled_sincerely-media-7TBFwUQA6Xk-unsplash.jpg","NaN","NaN","23603.134000000005","1476","false","1476",""
"301","","scramble_instruction","html-keyboard-response","323","111968","0.0-2.0-152.0-1.0-0.0","","0","0","22","","","","","50","","","","75","1","52","45","objects","body_parts","0","","","","","","","3","","","","","","","","","","25079.134000000005","1000","","","0"
"null","","deliberation_confirmation","html-keyboard-response","324","111971","0.0-2.0-152.0-2.0-0.0","","0","0","22","","","","","null","","","","75","","","","","","","","","","","","","3","","","","","","","","","","26079.134000000005","-0.777","","",""
"null","","iti","html-keyboard-response","325","112079","0.0-2.0-152.0-4.0","","0","0","22","","","","","null","","","","75","","","","","","","","","","","","","3","","","","","","","","","","26078.357000000007","3","","",""
"183","","deliberation","html-keyboard-response","326","112266","0.0-2.0-154.0-0.0","","0","0","22","","","","","50","","","","76","","","","","","","B","0","521","NaN","scramble","1500","4","2","20","32","outdoor_scenes","faces","Stimuli/Experimental_stims/scramble/outdoor_scenes/scrambled_samsommer-vddccTqwal8-unsplash.jpg","Stimuli/Experimental_stims/scramble/faces/scrambled_justin-chen-J7Cf1Gch49E-unsplash.jpg","NaN","NaN","26081.357000000007","521","false","521",""
"317","","scramble_instruction","html-keyboard-response","327","112585","0.0-2.0-154.0-1.0-0.0","","0","0","22","","","","","50","","","","76","1","20","32","outdoor_scenes","faces","0","","","","","","","4","","","","","","","","","","26602.357000000007","1000","","","0"
"null","","deliberation_confirmation","html-keyboard-response","328","112755","0.0-2.0-154.0-2.0-0.0","","0","0","22","","","","","null","","","","76","","","","","","","","","","","","","4","","","","","","","","","","27602.357000000007","0.162","","",""
"null","","iti","html-keyboard-response","329","112858","0.0-2.0-154.0-4.0","","0","0","22","","","","","null","","","","76","","","","","","","","","","","","","4","","","","","","","","","","27602.519000000008","1.5","","",""
"14","","deliberation","html-keyboard-response","330","112876","0.0-2.0-156.0-0.0","","0","0","22","","","","","50","","","","77","1","47","24","body_parts","faces","0","L","0","NaN","NaN","original","1500","4","2","47","24","body_parts","faces","Stimuli/Experimental_stims/body_parts/tucker-good-36skLT5jZcc-unsplash.jpg","Stimuli/Experimental_stims/faces/abstral-official-cyOKLSgkgCE-unsplash.jpg","50","50","27604.019000000008","0.014","","",""
"null","","deliberation_confirmation","html-keyboard-response","331","113867","0.0-2.0-156.0-2.0-0.0","","0","0","22","","","","","null","","","","77","","","","","","","","","","","","","4","","","","","","","","","","27604.033000000007","0.986","","",""
"null","","iti","html-keyboard-response","332","113972","0.0-2.0-156.0-4.0","","0","0","22","","","","","null","","","","77","","","","","","","","","","","","","4","","","","","","","","","","27605.019000000008","1.5","","",""
"113","","deliberation","html-keyboard-response","333","114086","0.0-2.0-158.0-0.0","","0","0","22","","","","","50","","","","78","","","","","","","L","0","829","NaN","scramble","1000","4","2","47","24","body_parts","faces","Stimuli/Experimental_stims/scramble/body_parts/scrambled_tucker-good-36skLT5jZcc-unsplash.jpg","Stimuli/Experimental_stims/scramble/faces/scrambled_abstral-official-cyOKLSgkgCE-unsplash.jpg","NaN","NaN","27606.519000000008","829","false","829",""
