"rt","responses","ttype","trial_type","trial_index","time_elapsed","internal_node_id","age","PID","warning","missed_checkup","success","start_time","view_history","repeat_instructions","key_press","response","stimulus_index","path","index","no_response","pair_id","practice","scramble_screen_time","scramble_instructed_side","stim_type","iti","block","run","left_stimulus","right_stimulus","left_category","right_category","left_path","right_path","left_rating","right_rating","onset","duration","left_chosen","chosen_stimulus","unchosen_stimulus","chosen_category","unchosen_category","chosen_rating","unchosen_rating","chosen_path","unchosen_path","response_ends_trial","trial_duration","scramble_acc","chosen_left","old_pair","pair_type","old_response","pair_acc"
"3350","{""Q0"":""12"",""Q1"":""1""}","get_id","survey-text","0","3353","0.0-0.0-0.0-0.0","1","12","0","0","","","","","","","","","","","","","","","","","","","","","","","","","","","","","","","","","","","","","","","","","","","","",""
"","","full_screen","fullscreen","1","5085","0.0-0.0-1.0","1","12","0","0","true","d04242023hr1500","","","","","","","","","","","","","","","","","","","","","","","","","","","","","","","","","","","","","","","","","","",""
"1077","","ratings_instructions","instructions","2","6164","0.0-1.0-0.0-0.0","1","12","0","0","","","[{""page_index"":0,""viewing_time"":909},{""page_index"":1,""viewing_time"":168}]","","","","","","","","","","","","","","","","","","","","","","","","","","","","","","","","","","","","","","","","","",""
"2396","{""Q0"":""True"",""Q1"":""Mouse""}","rating_comprehension_check","survey-multi-choice","3","8563","0.0-1.0-0.0-1.0","1","12","0","0","","","","0","","","","","","","","","","","","","","","","","","","","","","","","","","","","","","","","","","","","","","","","",""
"936","","","html-keyboard-response","4","9500","0.0-1.0-1.0","1","12","0","0","","","","","83","","","","","","","","","","","","","","","","","","","","","","","","","","","","","","","","","","","","","","","",""
"1191","","rating","html-slider-response","5","10694","0.0-1.0-2.0","1","12","0","0","","","","","","50","12","Stimuli/Experimental_stims/outdoor_scenes/aleksandra-boguslawska-MS7KD9Ti7FQ-unsplash.jpg","0","","","","","","","","","","","","","","","","","","","","","","","","","","","","","","","","","","","",""
"152","","rating","html-slider-response","6","10848","0.0-1.0-3.0","1","12","0","0","","","","","","50","56","Stimuli/Experimental_stims/objects/jonathan-greenaway-Y4hGgeiFn3s-unsplash.jpg","1","","","","","","","","","","","","","","","","","","","","","","","","","","","","","","","","","","","",""
"178","","rating","html-slider-response","7","11028","0.0-1.0-4.0","1","12","0","0","","","","","","50","15","Stimuli/Experimental_stims/outdoor_scenes/henry-be-NLF6hTe4PAg-unsplash.jpg","2","","","","","","","","","","","","","","","","","","","","","","","","","","","","","","","","","","","",""
"166","","rating","html-slider-response","8","11196","0.0-1.0-5.0","1","12","0","0","","","","","","50","34","Stimuli/Experimental_stims/faces/olena-sergienko-0TSd6uCKTKc-unsplash.jpg","3","","","","","","","","","","","","","","","","","","","","","","","","","","","","","","","","","","","",""
"164","","rating","html-slider-response","9","11362","0.0-1.0-6.0","1","12","0","0","","","","","","50","32","Stimuli/Experimental_stims/faces/justin-chen-J7Cf1Gch49E-unsplash.jpg","4","","","","","","","","","","","","","","","","","","","","","","","","","","","","","","","","","","","",""
"152","","rating","html-slider-response","10","11516","0.0-1.0-7.0","1","12","0","0","","","","","","50","43","Stimuli/Experimental_stims/body_parts/megan-menegay-UojxG_BJxnI-unsplash.jpg","5","","","","","","","","","","","","","","","","","","","","","","","","","","","","","","","","","","","",""
"256","","rating","html-slider-response","11","11773","0.0-1.0-8.0","1","12","0","0","","","","","","50","38","Stimuli/Experimental_stims/body_parts/engin-akyurt-x_3gyC42btc-unsplash.jpg","6","","","","","","","","","","","","","","","","","","","","","","","","","","","","","","","","","","","",""
"167","","rating","html-slider-response","12","11942","0.0-1.0-9.0","1","12","0","0","","","","","","50","59","Stimuli/Experimental_stims/objects/ronaldo-arthur-vidal-Cdz_lvnl37k-unsplash.jpg","7","","","","","","","","","","","","","","","","","","","","","","","","","","","","","","","","","","","",""
"165","","rating","html-slider-response","13","12110","0.0-1.0-10.0","1","12","0","0","","","","","","50","40","Stimuli/Experimental_stims/body_parts/klara-kulikova-TcUfF24fUMY-unsplash.jpg","8","","","","","","","","","","","","","","","","","","","","","","","","","","","","","","","","","","","",""
"154","","rating","html-slider-response","14","12266","0.0-1.0-11.0","1","12","0","0","","","","","","50","19","Stimuli/Experimental_stims/outdoor_scenes/petr-vysohlid-9fqwGqGLUxc-unsplash.jpg","9","","","","","","","","","","","","","","","","","","","","","","","","","","","","","","","","","","","",""
"154","","rating","html-slider-response","15","12422","0.0-1.0-12.0","1","12","0","0","","","","","","50","41","Stimuli/Experimental_stims/body_parts/lucaxx-freire-CacZwMexYdk-unsplash.jpg","10","","","","","","","","","","","","","","","","","","","","","","","","","","","","","","","","","","","",""
"166","","rating","html-slider-response","16","12590","0.0-1.0-13.0","1","12","0","0","","","","","","50","17","Stimuli/Experimental_stims/outdoor_scenes/jeff-king-bJHWJeiHfHc-unsplash.jpg","11","","","","","","","","","","","","","","","","","","","","","","","","","","","","","","","","","","","",""
"176","","rating","html-slider-response","17","12768","0.0-1.0-14.0","1","12","0","0","","","","","","50","16","Stimuli/Experimental_stims/outdoor_scenes/jarrett-kow-1ZOyYPOBn7I-unsplash.jpg","12","","","","","","","","","","","","","","","","","","","","","","","","","","","","","","","","","","","",""
"166","","rating","html-slider-response","18","12936","0.0-1.0-15.0","1","12","0","0","","","","","","50","25","Stimuli/Experimental_stims/faces/aiony-haust-jmATI5Q_YgY-unsplash.jpg","13","","","","","","","","","","","","","","","","","","","","","","","","","","","","","","","","","","","",""
"175","","rating","html-slider-response","19","13113","0.0-1.0-16.0","1","12","0","0","","","","","","50","18","Stimuli/Experimental_stims/outdoor_scenes/meng-ji-8BH_M-53CyA-unsplash.jpg","14","","","","","","","","","","","","","","","","","","","","","","","","","","","","","","","","","","","",""
"189","","rating","html-slider-response","20","13304","0.0-1.0-17.0","1","12","0","0","","","","","","50","29","Stimuli/Experimental_stims/faces/freddy-kearney-o-ioeoATbIM-unsplash.jpg","15","","","","","","","","","","","","","","","","","","","","","","","","","","","","","","","","","","","",""
"188","","rating","html-slider-response","21","13494","0.0-1.0-18.0","1","12","0","0","","","","","","50","52","Stimuli/Experimental_stims/objects/fabian-blank-pElSkGRA2NU-unsplash.jpg","16","","","","","","","","","","","","","","","","","","","","","","","","","","","","","","","","","","","",""
"176","","rating","html-slider-response","22","13672","0.0-1.0-19.0","1","12","0","0","","","","","","50","39","Stimuli/Experimental_stims/body_parts/jonathan-borba-hTwH8QFkPMs-unsplash.jpg","17","","","","","","","","","","","","","","","","","","","","","","","","","","","","","","","","","","","",""
"188","","rating","html-slider-response","23","13862","0.0-1.0-20.0","1","12","0","0","","","","","","50","22","Stimuli/Experimental_stims/outdoor_scenes/stephen-leonardi-gyIRjKPXupE-unsplash.jpg","18","","","","","","","","","","","","","","","","","","","","","","","","","","","","","","","","","","","",""
"176","","rating","html-slider-response","24","14040","0.0-1.0-21.0","1","12","0","0","","","","","","50","24","Stimuli/Experimental_stims/faces/abstral-official-cyOKLSgkgCE-unsplash.jpg","19","","","","","","","","","","","","","","","","","","","","","","","","","","","","","","","","","","","",""
"175","","rating","html-slider-response","25","14217","0.0-1.0-22.0","1","12","0","0","","","","","","50","45","Stimuli/Experimental_stims/body_parts/sincerely-media-7TBFwUQA6Xk-unsplash.jpg","20","","","","","","","","","","","","","","","","","","","","","","","","","","","","","","","","","","","",""
"179","","rating","html-slider-response","26","14398","0.0-1.0-23.0","1","12","0","0","","","","","","50","35","Stimuli/Experimental_stims/faces/rikonavt-HQjfrvdTfak-unsplash.jpg","21","","","","","","","","","","","","","","","","","","","","","","","","","","","","","","","","","","","",""
"164","","rating","html-slider-response","27","14564","0.0-1.0-24.0","1","12","0","0","","","","","","50","23","Stimuli/Experimental_stims/outdoor_scenes/yuriy-bogdanov-W51VK3Obcj0-unsplash.jpg","22","","","","","","","","","","","","","","","","","","","","","","","","","","","","","","","","","","","",""
"177","","rating","html-slider-response","28","14744","0.0-1.0-25.0","1","12","0","0","","","","","","50","21","Stimuli/Experimental_stims/outdoor_scenes/sergey-pesterev-y-b_FOmJXdg-unsplash.jpg","23","","","","","","","","","","","","","","","","","","","","","","","","","","","","","","","","","","","",""
"176","","rating","html-slider-response","29","14922","0.0-1.0-26.0","1","12","0","0","","","","","","50","54","Stimuli/Experimental_stims/objects/jess-bailey-nOeVi8DsN8U-unsplash.jpg","24","","","","","","","","","","","","","","","","","","","","","","","","","","","","","","","","","","","",""
"176","","rating","html-slider-response","30","15100","0.0-1.0-27.0","1","12","0","0","","","","","","50","46","Stimuli/Experimental_stims/body_parts/sincerely-media-VN6DbKajo5s-unsplash.jpg","25","","","","","","","","","","","","","","","","","","","","","","","","","","","","","","","","","","","",""
"176","","rating","html-slider-response","31","15278","0.0-1.0-28.0","1","12","0","0","","","","","","50","42","Stimuli/Experimental_stims/body_parts/lucrezia-carnelos-kn6QrWtnAtY-unsplash.jpg","26","","","","","","","","","","","","","","","","","","","","","","","","","","","","","","","","","","","",""
"188","","rating","html-slider-response","32","15468","0.0-1.0-29.0","1","12","0","0","","","","","","50","50","Stimuli/Experimental_stims/objects/andrew-petrov-TVJqDat4MAw-unsplash.jpg","27","","","","","","","","","","","","","","","","","","","","","","","","","","","","","","","","","","","",""
"176","","rating","html-slider-response","33","15646","0.0-1.0-30.0","1","12","0","0","","","","","","50","27","Stimuli/Experimental_stims/faces/daniel-rigdon-dXmXKPP2L4E-unsplash.jpg","28","","","","","","","","","","","","","","","","","","","","","","","","","","","","","","","","","","","",""
"197","","rating","html-slider-response","34","15846","0.0-1.0-31.0","1","12","0","0","","","","","","50","49","Stimuli/Experimental_stims/objects/alexander-andrews-VLGWE_SumrA-unsplash.jpg","29","","","","","","","","","","","","","","","","","","","","","","","","","","","","","","","","","","","",""
"190","","rating","html-slider-response","35","16038","0.0-1.0-32.0","1","12","0","0","","","","","","50","13","Stimuli/Experimental_stims/outdoor_scenes/ashim-d-silva-S2Q5mdOrrVc-unsplash.jpg","30","","","","","","","","","","","","","","","","","","","","","","","","","","","","","","","","","","","",""
"186","","rating","html-slider-response","36","16226","0.0-1.0-33.0","1","12","0","0","","","","","","50","36","Stimuli/Experimental_stims/body_parts/callum-skelton-3KLMq7y46nA-unsplash.jpg","31","","","","","","","","","","","","","","","","","","","","","","","","","","","","","","","","","","","",""
"200","","rating","html-slider-response","37","16428","0.0-1.0-34.0","1","12","0","0","","","","","","50","14","Stimuli/Experimental_stims/outdoor_scenes/bruno-van-der-kraan-qez8mNJ3ilU-unsplash.jpg","32","","","","","","","","","","","","","","","","","","","","","","","","","","","","","","","","","","","",""
"188","","rating","html-slider-response","38","16618","0.0-1.0-35.0","1","12","0","0","","","","","","50","37","Stimuli/Experimental_stims/body_parts/engin-akyurt-Q2rfH3GW39c-unsplash.jpg","33","","","","","","","","","","","","","","","","","","","","","","","","","","","","","","","","","","","",""
"176","","rating","html-slider-response","39","16796","0.0-1.0-36.0","1","12","0","0","","","","","","50","20","Stimuli/Experimental_stims/outdoor_scenes/samsommer-vddccTqwal8-unsplash.jpg","34","","","","","","","","","","","","","","","","","","","","","","","","","","","","","","","","","","","",""
"176","","rating","html-slider-response","40","16974","0.0-1.0-37.0","1","12","0","0","","","","","","50","28","Stimuli/Experimental_stims/faces/erik-lucatero-d2MSDujJl2g-unsplash.jpg","35","","","","","","","","","","","","","","","","","","","","","","","","","","","","","","","","","","","",""
"166","","rating","html-slider-response","41","17142","0.0-1.0-38.0","1","12","0","0","","","","","","50","53","Stimuli/Experimental_stims/objects/insung-yoon-w2JtIQQXoRU-unsplash.jpg","36","","","","","","","","","","","","","","","","","","","","","","","","","","","","","","","","","","","",""
"176","","rating","html-slider-response","42","17320","0.0-1.0-39.0","1","12","0","0","","","","","","50","30","Stimuli/Experimental_stims/faces/good-faces-xmSWVeGEnJw-unsplash.jpg","37","","","","","","","","","","","","","","","","","","","","","","","","","","","","","","","","","","","",""
"166","","rating","html-slider-response","43","17488","0.0-1.0-40.0","1","12","0","0","","","","","","50","26","Stimuli/Experimental_stims/faces/art-hauntington-jzY0KRJopEI-unsplash.jpg","38","","","","","","","","","","","","","","","","","","","","","","","","","","","","","","","","","","","",""
"176","","rating","html-slider-response","44","17666","0.0-1.0-41.0","1","12","0","0","","","","","","50","58","Stimuli/Experimental_stims/objects/mockup-graphics-PNsj6RiHAF4-unsplash.jpg","39","","","","","","","","","","","","","","","","","","","","","","","","","","","","","","","","","","","",""
"177","","rating","html-slider-response","45","17844","0.0-1.0-42.0","1","12","0","0","","","","","","50","48","Stimuli/Experimental_stims/objects/alexander-andrews-JYGnB9gTCls-unsplash.jpg","40","","","","","","","","","","","","","","","","","","","","","","","","","","","","","","","","","","","",""
"178","","rating","html-slider-response","46","18024","0.0-1.0-43.0","1","12","0","0","","","","","","50","44","Stimuli/Experimental_stims/body_parts/pure-julia-9lVaya31sMk-unsplash.jpg","41","","","","","","","","","","","","","","","","","","","","","","","","","","","","","","","","","","","",""
"186","","rating","html-slider-response","47","18212","0.0-1.0-44.0","1","12","0","0","","","","","","50","57","Stimuli/Experimental_stims/objects/kuiye-chen-NuOGFo4PudE-unsplash.jpg","42","","","","","","","","","","","","","","","","","","","","","","","","","","","","","","","","","","","",""
"178","","rating","html-slider-response","48","18392","0.0-1.0-45.0","1","12","0","0","","","","","","50","51","Stimuli/Experimental_stims/objects/art-lasovsky-8XddFc6NkBY-unsplash.jpg","43","","","","","","","","","","","","","","","","","","","","","","","","","","","","","","","","","","","",""
"186","","rating","html-slider-response","49","18580","0.0-1.0-46.0","1","12","0","0","","","","","","50","31","Stimuli/Experimental_stims/faces/jessica-radanavong-mrYkTuAesKE-unsplash.jpg","44","","","","","","","","","","","","","","","","","","","","","","","","","","","","","","","","","","","",""
"178","","rating","html-slider-response","50","18760","0.0-1.0-47.0","1","12","0","0","","","","","","50","55","Stimuli/Experimental_stims/objects/jiangxulei1990-eIzzzwtkBjU-unsplash.jpg","45","","","","","","","","","","","","","","","","","","","","","","","","","","","","","","","","","","","",""
"188","","rating","html-slider-response","51","18950","0.0-1.0-48.0","1","12","0","0","","","","","","50","47","Stimuli/Experimental_stims/body_parts/tucker-good-36skLT5jZcc-unsplash.jpg","46","","","","","","","","","","","","","","","","","","","","","","","","","","","","","","","","","","","",""
"186","","rating","html-slider-response","52","19138","0.0-1.0-49.0","1","12","0","0","","","","","","50","33","Stimuli/Experimental_stims/faces/leilani-angel-K84vnnzxmTQ-unsplash.jpg","47","","","","","","","","","","","","","","","","","","","","","","","","","","","","","","","","","","","",""
"3321","","deliberation_instructions","instructions","53","22496","0.0-2.0-0.0-0.0","1","12","0","0","","","[{""page_index"":0,""viewing_time"":1269},{""page_index"":1,""viewing_time"":200},{""page_index"":2,""viewing_time"":458},{""page_index"":3,""viewing_time"":790},{""page_index"":4,""viewing_time"":604}]","","","","","","","","","","","","","","","","","","","","","","","","","","","","","","","","","","","","","","","","","",""
"5621","{""Q0"":""True"",""Q1"":""True"",""Q2"":""Consider carefully and take your time (up to 10 seconds)"",""Q3"":""True"",""Q4"":""D""}","deliberation_comprehension_check","survey-multi-choice","54","28121","0.0-2.0-0.0-1.0","1","12","0","0","","","","0","","","","","","","","","","","","","","","","","","","","","","","","","","","","","","","","","","","","","","","","",""
"2074","","","html-keyboard-response","55","30197","0.0-2.0-1.0","1","12","0","0","","","","","83","","","","","","","","","","","","","","","","","","","","","","","","","","","","","","","","","","","","","","","",""
"null","","deliberation","html-keyboard-response","56","31207","0.0-2.0-2.0-0.0","1","12","0","0","","","","","null","","","","0","1","prac1","1","NaN","NaN","original","1500","0","0","NA","NA","NaN","NaN","Stimuli/Practice_stims/Deliberation/anthony-delanoix-Q0-fOL2nqZc-unsplash.jpg","Stimuli/Practice_stims/Deliberation/becca-tapert-sY5RjMB1KkE-unsplash.jpg","NA","NA","0","1","","","","","","","","","","","","","","","","",""
"null","","deliberation_no_response","html-keyboard-response","57","31716","0.0-2.0-2.0-3.0-0.0","1","12","0","0","","","","","null","","","","0","1","","","","","","","0","","","","","","","","","","1","0.5","","","","","","","","","","","","","","","","",""
"null","","iti","html-keyboard-response","58","31824","0.0-2.0-2.0-4.0","1","12","0","0","","","","","null","","","","0","","","","","","","","0","","","","","","","","","","1.5","1","","","","","","","","","","","","","","","","",""
"269","","deliberation","html-keyboard-response","59","32095","0.0-2.0-2.1-0.1","1","12","0","0","","","","","50","","","","0","0","prac1","1","NaN","NaN","original","1500","0","0","NA","NA","NaN","NaN","Stimuli/Practice_stims/Deliberation/anthony-delanoix-Q0-fOL2nqZc-unsplash.jpg","Stimuli/Practice_stims/Deliberation/becca-tapert-sY5RjMB1KkE-unsplash.jpg","NA","NA","2.5","0.269","1","NA","NA","NaN","NaN","NA","NA","Stimuli/Practice_stims/Deliberation/anthony-delanoix-Q0-fOL2nqZc-unsplash.jpg","Stimuli/Practice_stims/Deliberation/becca-tapert-sY5RjMB1KkE-unsplash.jpg","","","","","","","",""
"null","","deliberation_confirmation","html-keyboard-response","60","32838","0.0-2.0-2.1-2.1-0.1","1","12","0","0","","","","","null","","","","0","","","","","","","","0","","","","","","","","","","2.769","0.731","","","","","","","","","","","","","","","","",""
"null","","iti","html-keyboard-response","61","32949","0.0-2.0-2.1-4.1","1","12","0","0","","","","","null","","","","0","","","","","","","","0","","","","","","","","","","3.5","1","","","","","","","","","","","","","","","","",""
"188","","deliberation","html-keyboard-response","62","33140","0.0-2.0-4.0-0.0","1","12","0","0","","","","","50","","","","1","0","prac2","1","2559","left","scramble","2500","0","0","NA","NA","NaN","NaN","Stimuli/Practice_stims/Deliberation/scramble/scrambled_clay-banks-1KPfcPdbWFM-unsplash.jpg","Stimuli/Practice_stims/Deliberation/scramble/scrambled_melissa-keizer-sV4Pd8wq5_o-unsplash.jpg","NA","NA","4.5","2.559","","","","","","","","","","false","2559","","","","","",""
"438","","scramble_instruction","html-keyboard-response","63","33579","0.0-2.0-4.0-1.0-0.0","1","12","0","0","","","","","50","","","","1","0","","","","","","","0","","","","","","","","","","7.059","0.438","1","NA","NA","NaN","NaN","","","","","","","1","","","","",""
"null","","deliberation_confirmation","html-keyboard-response","64","33582","0.0-2.0-4.0-2.0-0.0","1","12","0","0","","","","","null","","","","1","","","","","","","","0","","","","","","","","","","7.497","-1.997","","","","","","","","","","","","","","","","",""
"null","","iti","html-keyboard-response","65","33687","0.0-2.0-4.0-4.0","1","12","0","0","","","","","null","","","","1","","","","","","","","0","","","","","","","","","","5.5","2.5","","","","","","","","","","","","","","","","",""
"250","","deliberation","html-keyboard-response","66","33939","0.0-2.0-6.0-0.0","1","12","0","0","","","","","50","","","","2","0","prac3","1","1450","right","scramble","3000","0","0","NA","NA","NaN","NaN","Stimuli/Practice_stims/Deliberation/scramble/scrambled_anthony-delanoix-Q0-fOL2nqZc-unsplash.jpg","Stimuli/Practice_stims/Deliberation/scramble/scrambled_becca-tapert-sY5RjMB1KkE-unsplash.jpg","NA","NA","8","1.45","","","","","","","","","","false","1450","","","","","",""
"302","","scramble_instruction","html-keyboard-response","67","34243","0.0-2.0-6.0-1.0-0.0","1","12","0","0","","","","","50","","","","2","0","","","","","","","0","","","","","","","","","","9.45","0.302","1","NA","NA","NaN","NaN","","","","","","","0","","","","",""
"null","","deliberation_confirmation","html-keyboard-response","68","34245","0.0-2.0-6.0-2.0-0.0","1","12","0","0","","","","","null","","","","2","","","","","","","","0","","","","","","","","","","9.751999999999999","-0.752","","","","","","","","","","","","","","","","",""
"null","","iti","html-keyboard-response","69","34348","0.0-2.0-6.0-4.0","1","12","0","0","","","","","null","","","","2","","","","","","","","0","","","","","","","","","","8.999999999999998","3","","","","","","","","","","","","","","","","",""
"190","","deliberation","html-keyboard-response","70","34540","0.0-2.0-8.0-0.0","1","12","0","0","","","","","50","","","","3","0","prac4","1","NaN","NaN","original","2000","0","0","NA","NA","NaN","NaN","Stimuli/Practice_stims/Deliberation/clay-banks-1KPfcPdbWFM-unsplash.jpg","Stimuli/Practice_stims/Deliberation/melissa-keizer-sV4Pd8wq5_o-unsplash.jpg","NA","NA","11.999999999999998","0.19","1","NA","NA","NaN","NaN","NA","NA","Stimuli/Practice_stims/Deliberation/clay-banks-1KPfcPdbWFM-unsplash.jpg","Stimuli/Practice_stims/Deliberation/melissa-keizer-sV4Pd8wq5_o-unsplash.jpg","","","","","","","",""
"null","","deliberation_confirmation","html-keyboard-response","71","35357","0.0-2.0-8.0-2.0-0.0","1","12","0","0","","","","","null","","","","3","","","","","","","","0","","","","","","","","","","12.189999999999998","0.81","","","","","","","","","","","","","","","","",""
"null","","iti","html-keyboard-response","72","35460","0.0-2.0-8.0-4.0","1","12","0","0","","","","","null","","","","3","","","","","","","","0","","","","","","","","","","12.999999999999998","2","","","","","","","","","","","","","","","","",""
"1526","","practice_over","html-keyboard-response","73","36988","0.0-2.0-8.0-5.0-0.0","1","12","0","0","","","","","83","","","","3","","","","","","","","","","","","","","","","","","","","","","","","","","","","","","","","","","","",""
"1911","","start_run","html-keyboard-response","74","38899","0.0-2.0-8.0-5.0-1.0","1","12","0","0","","","","","84","","","","","","","","","","","","","","","","","","","","","","","","","","","","","","","","","","","","","","","",""
"430","","deliberation","html-keyboard-response","75","39332","0.0-2.0-10.0-0.0","1","12","0","0","","","","","50","","","","4","0","H","0","1443","left","scramble","1000","1","1","27","23","faces","outdoor_scenes","Stimuli/Experimental_stims/scramble/faces/scrambled_daniel-rigdon-dXmXKPP2L4E-unsplash.jpg","Stimuli/Experimental_stims/scramble/outdoor_scenes/scrambled_yuriy-bogdanov-W51VK3Obcj0-unsplash.jpg","NaN","NaN","0","1.443","","","","","","","","","","false","1443","","","","","",""
"270","","scramble_instruction","html-keyboard-response","76","39604","0.0-2.0-10.0-1.0-0.0","1","12","0","0","","","","","50","","","","4","0","","","","","","","1","","","","","","","","","","1.443","0.27","1","27","23","faces","outdoor_scenes","","","","","","","1","","","","",""
"null","","deliberation_confirmation","html-keyboard-response","77","39606","0.0-2.0-10.0-2.0-0.0","1","12","0","0","","","","","null","","","","4","","","","","","","","1","","","","","","","","","","1.713","-0.713","","","","","","","","","","","","","","","","",""
"null","","iti","html-keyboard-response","78","39708","0.0-2.0-10.0-4.0","1","12","0","0","","","","","null","","","","4","","","","","","","","1","","","","","","","","","","1","1","","","","","","","","","","","","","","","","",""
"109","","deliberation","html-keyboard-response","79","39819","0.0-2.0-12.0-0.0","1","12","0","0","","","","","50","","","","5","0","E","0","NaN","NaN","original","3000","1","1","54","36","objects","body_parts","Stimuli/Experimental_stims/objects/jess-bailey-nOeVi8DsN8U-unsplash.jpg","Stimuli/Experimental_stims/body_parts/callum-skelton-3KLMq7y46nA-unsplash.jpg","50","50","2","0.109","1","54","36","objects","body_parts","50","50","Stimuli/Experimental_stims/objects/jess-bailey-nOeVi8DsN8U-unsplash.jpg","Stimuli/Experimental_stims/body_parts/callum-skelton-3KLMq7y46nA-unsplash.jpg","","","","","","","",""
"null","","deliberation_confirmation","html-keyboard-response","80","40716","0.0-2.0-12.0-2.0-0.0","1","12","0","0","","","","","null","","","","5","","","","","","","","1","","","","","","","","","","2.109","0.891","","","","","","","","","","","","","","","","",""
"null","","iti","html-keyboard-response","81","40824","0.0-2.0-12.0-4.0","1","12","0","0","","","","","null","","","","5","","","","","","","","1","","","","","","","","","","3","3","","","","","","","","","","","","","","","","",""
"null","","deliberation","html-keyboard-response","82","41831","0.0-2.0-14.0-0.0","1","12","0","0","","","","","null","","","","6","1","H","0","NaN","NaN","original","1500","1","1","27","23","faces","outdoor_scenes","Stimuli/Experimental_stims/faces/daniel-rigdon-dXmXKPP2L4E-unsplash.jpg","Stimuli/Experimental_stims/outdoor_scenes/yuriy-bogdanov-W51VK3Obcj0-unsplash.jpg","50","50","6","1","","","","","","","","","","","","","","","","",""
"null","","deliberation_no_response","html-keyboard-response","83","42340","0.0-2.0-14.0-3.0-0.0","1","12","0","0","","","","","null","","","","6","1","","","","","","","1","","","","","","","","","","7","0.5","","","","","","","","","","","","","","","","",""
"null","","iti","html-keyboard-response","84","42444","0.0-2.0-14.0-4.0","1","12","0","0","","","","","null","","","","6","","","","","","","","1","","","","","","","","","","7.5","1","","","","","","","","","","","","","","","","",""
"454","","deliberation","html-keyboard-response","85","42900","0.0-2.0-16.0-0.0","1","12","0","0","","","","","50","","","","7","0","K","0","NaN","NaN","original","1000","1","1","37","59","body_parts","objects","Stimuli/Experimental_stims/body_parts/engin-akyurt-Q2rfH3GW39c-unsplash.jpg","Stimuli/Experimental_stims/objects/ronaldo-arthur-vidal-Cdz_lvnl37k-unsplash.jpg","50","50","8.5","0.454","1","37","59","body_parts","objects","50","50","Stimuli/Experimental_stims/body_parts/engin-akyurt-Q2rfH3GW39c-unsplash.jpg","Stimuli/Experimental_stims/objects/ronaldo-arthur-vidal-Cdz_lvnl37k-unsplash.jpg","","","","","","","",""
"null","","deliberation_confirmation","html-keyboard-response","86","43454","0.0-2.0-16.0-2.0-0.0","1","12","0","0","","","","","null","","","","7","","","","","","","","1","","","","","","","","","","8.954","0.546","","","","","","","","","","","","","","","","",""
"null","","iti","html-keyboard-response","87","43564","0.0-2.0-16.0-4.0","1","12","0","0","","","","","null","","","","7","","","","","","","","1","","","","","","","","","","9.5","1","","","","","","","","","","","","","","","","",""
"541","","deliberation","html-keyboard-response","88","44108","0.0-2.0-18.0-0.0","1","12","0","0","","","","","50","","","","8","0","F","0","957","right","scramble","1500","1","1","25","43","faces","body_parts","Stimuli/Experimental_stims/scramble/faces/scrambled_aiony-haust-jmATI5Q_YgY-unsplash.jpg","Stimuli/Experimental_stims/scramble/body_parts/scrambled_megan-menegay-UojxG_BJxnI-unsplash.jpg","NaN","NaN","10.5","0.957","","","","","","","","","","false","957","","","","","",""
"598","","scramble_instruction","html-keyboard-response","89","44707","0.0-2.0-18.0-1.0-0.0","1","12","0","0","","","","","50","","","","8","0","","","","","","","1","","","","","","","","","","11.457","0.598","1","25","43","faces","body_parts","","","","","","","0","","","","",""
"null","","deliberation_confirmation","html-keyboard-response","90","44710","0.0-2.0-18.0-2.0-0.0","1","12","0","0","","","","","null","","","","8","","","","","","","","1","","","","","","","","","","12.055000000000001","-0.555","","","","","","","","","","","","","","","","",""
"null","","iti","html-keyboard-response","91","44813","0.0-2.0-18.0-4.0","1","12","0","0","","","","","null","","","","8","","","","","","","","1","","","","","","","","","","11.500000000000002","1.5","","","","","","","","","","","","","","","","",""
"null","","deliberation","html-keyboard-response","92","45824","0.0-2.0-20.0-0.0","1","12","0","0","","","","","null","","","","9","1","J","0","1368","right","scramble","3000","1","1","31","51","faces","objects","Stimuli/Experimental_stims/scramble/faces/scrambled_jessica-radanavong-mrYkTuAesKE-unsplash.jpg","Stimuli/Experimental_stims/scramble/objects/scrambled_art-lasovsky-8XddFc6NkBY-unsplash.jpg","NaN","NaN","13.000000000000002","1.368","","","","","","","","","","false","1368","","","","","",""
"345","","scramble_instruction","html-keyboard-response","93","46172","0.0-2.0-20.0-1.0-0.0","1","12","0","0","","","","","50","","","","9","0","","","","","","","1","","","","","","","","","","14.368000000000002","0.345","1","31","51","faces","objects","","","","","","","0","","","","",""
"null","","deliberation_confirmation","html-keyboard-response","94","46174","0.0-2.0-20.0-2.0-0.0","1","12","0","0","","","","","null","","","","9","","","","","","","","1","","","","","","","","","","14.713000000000003","-0.713","","","","","","","","","","","","","","","","",""
"null","","iti","html-keyboard-response","95","46281","0.0-2.0-20.0-4.0","1","12","0","0","","","","","null","","","","9","","","","","","","","1","","","","","","","","","","14.000000000000004","2.5","","","","","","","","","","","","","","","","",""
"137","","deliberation","html-keyboard-response","96","46419","0.0-2.0-22.0-0.0","1","12","0","0","","","","","50","","","","10","0","I","0","1778","right","scramble","1000","1","1","38","18","body_parts","outdoor_scenes","Stimuli/Experimental_stims/scramble/body_parts/scrambled_engin-akyurt-x_3gyC42btc-unsplash.jpg","Stimuli/Experimental_stims/scramble/outdoor_scenes/scrambled_meng-ji-8BH_M-53CyA-unsplash.jpg","NaN","NaN","16.500000000000004","1.778","","","","","","","","","","false","1778","","","","","",""
"383","","scramble_instruction","html-keyboard-response","97","46803","0.0-2.0-22.0-1.0-0.0","1","12","0","0","","","","","50","","","","10","0","","","","","","","1","","","","","","","","","","18.278000000000002","0.383","1","38","18","body_parts","outdoor_scenes","","","","","","","0","","","","",""
"null","","deliberation_confirmation","html-keyboard-response","98","46806","0.0-2.0-22.0-2.0-0.0","1","12","0","0","","","","","null","","","","10","","","","","","","","1","","","","","","","","","","18.661","-1.161","","","","","","","","","","","","","","","","",""
"null","","iti","html-keyboard-response","99","46907","0.0-2.0-22.0-4.0","1","12","0","0","","","","","null","","","","10","","","","","","","","1","","","","","","","","","","17.5","1","","","","","","","","","","","","","","","","",""
"223","","deliberation","html-keyboard-response","100","47132","0.0-2.0-24.0-0.0","1","12","0","0","","","","","50","","","","11","0","A","0","NaN","NaN","original","1500","1","1","19","55","outdoor_scenes","objects","Stimuli/Experimental_stims/outdoor_scenes/petr-vysohlid-9fqwGqGLUxc-unsplash.jpg","Stimuli/Experimental_stims/objects/jiangxulei1990-eIzzzwtkBjU-unsplash.jpg","50","50","18.5","0.223","1","19","55","outdoor_scenes","objects","50","50","Stimuli/Experimental_stims/outdoor_scenes/petr-vysohlid-9fqwGqGLUxc-unsplash.jpg","Stimuli/Experimental_stims/objects/jiangxulei1990-eIzzzwtkBjU-unsplash.jpg","","","","","","","",""
"null","","deliberation_confirmation","html-keyboard-response","101","47920","0.0-2.0-24.0-2.0-0.0","1","12","0","0","","","","","null","","","","11","","","","","","","","1","","","","","","","","","","18.723","0.777","","","","","","","","","","","","","","","","",""
"null","","iti","html-keyboard-response","102","48032","0.0-2.0-24.0-4.0","1","12","0","0","","","","","null","","","","11","","","","","","","","1","","","","","","","","","","19.5","1.5","","","","","","","","","","","","","","","","",""
"321","","deliberation","html-keyboard-response","103","48356","0.0-2.0-26.0-0.0","1","12","0","0","","","","","50","","","","12","0","F","0","NaN","NaN","original","3500","1","1","25","43","faces","body_parts","Stimuli/Experimental_stims/faces/aiony-haust-jmATI5Q_YgY-unsplash.jpg","Stimuli/Experimental_stims/body_parts/megan-menegay-UojxG_BJxnI-unsplash.jpg","50","50","21","0.321","1","25","43","faces","body_parts","50","50","Stimuli/Experimental_stims/faces/aiony-haust-jmATI5Q_YgY-unsplash.jpg","Stimuli/Experimental_stims/body_parts/megan-menegay-UojxG_BJxnI-unsplash.jpg","","","","","","","",""
"null","","deliberation_confirmation","html-keyboard-response","104","49048","0.0-2.0-26.0-2.0-0.0","1","12","0","0","","","","","null","","","","12","","","","","","","","1","","","","","","","","","","21.321","0.679","","","","","","","","","","","","","","","","",""
"null","","iti","html-keyboard-response","105","49156","0.0-2.0-26.0-4.0","1","12","0","0","","","","","null","","","","12","","","","","","","","1","","","","","","","","","","22","3.5","","","","","","","","","","","","","","","","",""
"358","","deliberation","html-keyboard-response","106","49516","0.0-2.0-28.0-0.0","1","12","0","0","","","","","50","","","","13","0","C","0","NaN","NaN","original","3000","1","1","15","45","outdoor_scenes","body_parts","Stimuli/Experimental_stims/outdoor_scenes/henry-be-NLF6hTe4PAg-unsplash.jpg","Stimuli/Experimental_stims/body_parts/sincerely-media-7TBFwUQA6Xk-unsplash.jpg","50","50","25.5","0.358","1","15","45","outdoor_scenes","body_parts","50","50","Stimuli/Experimental_stims/outdoor_scenes/henry-be-NLF6hTe4PAg-unsplash.jpg","Stimuli/Experimental_stims/body_parts/sincerely-media-7TBFwUQA6Xk-unsplash.jpg","","","","","","","",""
"null","","deliberation_confirmation","html-keyboard-response","107","50167","0.0-2.0-28.0-2.0-0.0","1","12","0","0","","","","","null","","","","13","","","","","","","","1","","","","","","","","","","25.858","0.642","","","","","","","","","","","","","","","","",""
"null","","iti","html-keyboard-response","108","50276","0.0-2.0-28.0-4.0","1","12","0","0","","","","","null","","","","13","","","","","","","","1","","","","","","","","","","26.5","3","","","","","","","","","","","","","","","","",""
"109","","deliberation","html-keyboard-response","109","50388","0.0-2.0-30.0-0.0","1","12","0","0","","","","","50","","","","14","0","G","0","NaN","NaN","original","1000","1","1","57","22","objects","outdoor_scenes","Stimuli/Experimental_stims/objects/kuiye-chen-NuOGFo4PudE-unsplash.jpg","Stimuli/Experimental_stims/outdoor_scenes/stephen-leonardi-gyIRjKPXupE-unsplash.jpg","50","50","29.5","0.109","1","57","22","objects","outdoor_scenes","50","50","Stimuli/Experimental_stims/objects/kuiye-chen-NuOGFo4PudE-unsplash.jpg","Stimuli/Experimental_stims/outdoor_scenes/stephen-leonardi-gyIRjKPXupE-unsplash.jpg","","","","","","","",""
"null","","deliberation_confirmation","html-keyboard-response","110","51287","0.0-2.0-30.0-2.0-0.0","1","12","0","0","","","","","null","","","","14","","","","","","","","1","","","","","","","","","","29.609","0.891","","","","","","","","","","","","","","","","",""
"null","","iti","html-keyboard-response","111","51399","0.0-2.0-30.0-4.0","1","12","0","0","","","","","null","","","","14","","","","","","","","1","","","","","","","","","","30.5","1","","","","","","","","","","","","","","","","",""
"32","","deliberation","html-keyboard-response","112","51433","0.0-2.0-32.0-0.0","1","12","0","0","","","","","50","","","","15","0","G","0","1978","left","scramble","3000","1","1","57","22","objects","outdoor_scenes","Stimuli/Experimental_stims/scramble/objects/scrambled_kuiye-chen-NuOGFo4PudE-unsplash.jpg","Stimuli/Experimental_stims/scramble/outdoor_scenes/scrambled_stephen-leonardi-gyIRjKPXupE-unsplash.jpg","NaN","NaN","31.5","1.978","","","","","","","","","","false","1978","","","","","",""
"561","","scramble_instruction","html-keyboard-response","113","51996","0.0-2.0-32.0-1.0-0.0","1","12","0","0","","","","","50","","","","15","0","","","","","","","1","","","","","","","","","","33.478","0.561","1","57","22","objects","outdoor_scenes","","","","","","","1","","","","",""
"null","","deliberation_confirmation","html-keyboard-response","114","51999","0.0-2.0-32.0-2.0-0.0","1","12","0","0","","","","","null","","","","15","","","","","","","","1","","","","","","","","","","34.039","-1.539","","","","","","","","","","","","","","","","",""
"null","","iti","html-keyboard-response","115","52105","0.0-2.0-32.0-4.0","1","12","0","0","","","","","null","","","","15","","","","","","","","1","","","","","","","","","","32.5","3","","","","","","","","","","","","","","","","",""
"217","","deliberation","html-keyboard-response","116","52324","0.0-2.0-34.0-0.0","1","12","0","0","","","","","50","","","","16","0","L","0","1540","left","scramble","1000","1","1","46","32","body_parts","faces","Stimuli/Experimental_stims/scramble/body_parts/scrambled_sincerely-media-VN6DbKajo5s-unsplash.jpg","Stimuli/Experimental_stims/scramble/faces/scrambled_justin-chen-J7Cf1Gch49E-unsplash.jpg","NaN","NaN","35.5","1.54","","","","","","","","","","false","1540","","","","","",""
"814","","scramble_instruction","html-keyboard-response","117","53139","0.0-2.0-34.0-1.0-0.0","1","12","0","0","","","","","50","","","","16","0","","","","","","","1","","","","","","","","","","37.04","0.814","1","46","32","body_parts","faces","","","","","","","1","","","","",""
"null","","deliberation_confirmation","html-keyboard-response","118","53143","0.0-2.0-34.0-2.0-0.0","1","12","0","0","","","","","null","","","","16","","","","","","","","1","","","","","","","","","","37.854","-1.354","","","","","","","","","","","","","","","","",""
"null","","iti","html-keyboard-response","119","53248","0.0-2.0-34.0-4.0","1","12","0","0","","","","","null","","","","16","","","","","","","","1","","","","","","","","","","36.5","1","","","","","","","","","","","","","","","","",""
"425","","deliberation","html-keyboard-response","120","53675","0.0-2.0-36.0-0.0","1","12","0","0","","","","","50","","","","17","0","I","0","NaN","NaN","original","1500","1","1","38","18","body_parts","outdoor_scenes","Stimuli/Experimental_stims/body_parts/engin-akyurt-x_3gyC42btc-unsplash.jpg","Stimuli/Experimental_stims/outdoor_scenes/meng-ji-8BH_M-53CyA-unsplash.jpg","50","50","37.5","0.425","1","38","18","body_parts","outdoor_scenes","50","50","Stimuli/Experimental_stims/body_parts/engin-akyurt-x_3gyC42btc-unsplash.jpg","Stimuli/Experimental_stims/outdoor_scenes/meng-ji-8BH_M-53CyA-unsplash.jpg","","","","","","","",""
"null","","deliberation_confirmation","html-keyboard-response","121","54264","0.0-2.0-36.0-2.0-0.0","1","12","0","0","","","","","null","","","","17","","","","","","","","1","","","","","","","","","","37.925","0.575","","","","","","","","","","","","","","","","",""
"null","","iti","html-keyboard-response","122","54371","0.0-2.0-36.0-4.0","1","12","0","0","","","","","null","","","","17","","","","","","","","1","","","","","","","","","","38.5","1.5","","","","","","","","","","","","","","","","",""
"174","","deliberation","html-keyboard-response","123","54547","0.0-2.0-38.0-0.0","1","12","0","0","","","","","50","","","","18","0","E","0","996","left","scramble","3500","1","1","54","36","objects","body_parts","Stimuli/Experimental_stims/scramble/objects/scrambled_jess-bailey-nOeVi8DsN8U-unsplash.jpg","Stimuli/Experimental_stims/scramble/body_parts/scrambled_callum-skelton-3KLMq7y46nA-unsplash.jpg","NaN","NaN","40","0.996","","","","","","","","","","false","996","","","","","",""
"318","","scramble_instruction","html-keyboard-response","124","54867","0.0-2.0-38.0-1.0-0.0","1","12","0","0","","","","","50","","","","18","0","","","","","","","1","","","","","","","","","","40.996","0.318","1","54","36","objects","body_parts","","","","","","","1","","","","",""
"null","","deliberation_confirmation","html-keyboard-response","125","54869","0.0-2.0-38.0-2.0-0.0","1","12","0","0","","","","","null","","","","18","","","","","","","","1","","","","","","","","","","41.314","-0.314","","","","","","","","","","","","","","","","",""
"null","","iti","html-keyboard-response","126","54974","0.0-2.0-38.0-4.0","1","12","0","0","","","","","null","","","","18","","","","","","","","1","","","","","","","","","","41","3.5","","","","","","","","","","","","","","","","",""
"284","","deliberation","html-keyboard-response","127","55260","0.0-2.0-40.0-0.0","1","12","0","0","","","","","50","","","","19","0","A","0","1729","left","scramble","1000","1","1","19","55","outdoor_scenes","objects","Stimuli/Experimental_stims/scramble/outdoor_scenes/scrambled_petr-vysohlid-9fqwGqGLUxc-unsplash.jpg","Stimuli/Experimental_stims/scramble/objects/scrambled_jiangxulei1990-eIzzzwtkBjU-unsplash.jpg","NaN","NaN","44.5","1.729","","","","","","","","","","false","1729","","","","","",""
"366","","scramble_instruction","html-keyboard-response","128","55628","0.0-2.0-40.0-1.0-0.0","1","12","0","0","","","","","50","","","","19","0","","","","","","","1","","","","","","","","","","46.229","0.366","1","19","55","outdoor_scenes","objects","","","","","","","1","","","","",""
"null","","deliberation_confirmation","html-keyboard-response","129","55630","0.0-2.0-40.0-2.0-0.0","1","12","0","0","","","","","null","","","","19","","","","","","","","1","","","","","","","","","","46.595","-1.095","","","","","","","","","","","","","","","","",""
"null","","iti","html-keyboard-response","130","55732","0.0-2.0-40.0-4.0","1","12","0","0","","","","","null","","","","19","","","","","","","","1","","","","","","","","","","45.5","1","","","","","","","","","","","","","","","","",""
"93","","deliberation","html-keyboard-response","131","55828","0.0-2.0-42.0-0.0","1","12","0","0","","","","","50","","","","20","0","K","0","1135","left","scramble","2000","1","1","37","59","body_parts","objects","Stimuli/Experimental_stims/scramble/body_parts/scrambled_engin-akyurt-Q2rfH3GW39c-unsplash.jpg","Stimuli/Experimental_stims/scramble/objects/scrambled_ronaldo-arthur-vidal-Cdz_lvnl37k-unsplash.jpg","NaN","NaN","46.5","1.135","","","","","","","","","","false","1135","","","","","",""
"182","","scramble_instruction","html-keyboard-response","132","56012","0.0-2.0-42.0-1.0-0.0","1","12","0","0","","","","","50","","","","20","0","","","","","","","1","","","","","","","","","","47.635","0.182","1","37","59","body_parts","objects","","","","","","","1","","","","",""
"null","","deliberation_confirmation","html-keyboard-response","133","56014","0.0-2.0-42.0-2.0-0.0","1","12","0","0","","","","","null","","","","20","","","","","","","","1","","","","","","","","","","47.817","-0.317","","","","","","","","","","","","","","","","",""
"null","","iti","html-keyboard-response","134","56120","0.0-2.0-42.0-4.0","1","12","0","0","","","","","null","","","","20","","","","","","","","1","","","","","","","","","","47.5","2","","","","","","","","","","","","","","","","",""
"105","","deliberation","html-keyboard-response","135","56228","0.0-2.0-44.0-0.0","1","12","0","0","","","","","50","","","","21","0","D","0","1677","right","scramble","1500","1","1","56","33","objects","faces","Stimuli/Experimental_stims/scramble/objects/scrambled_jonathan-greenaway-Y4hGgeiFn3s-unsplash.jpg","Stimuli/Experimental_stims/scramble/faces/scrambled_leilani-angel-K84vnnzxmTQ-unsplash.jpg","NaN","NaN","49.5","1.677","","","","","","","","","","false","1677","","","","","",""
"214","","scramble_instruction","html-keyboard-response","136","56444","0.0-2.0-44.0-1.0-0.0","1","12","0","0","","","","","50","","","","21","0","","","","","","","1","","","","","","","","","","51.177","0.214","1","56","33","objects","faces","","","","","","","0","","","","",""
"null","","deliberation_confirmation","html-keyboard-response","137","56447","0.0-2.0-44.0-2.0-0.0","1","12","0","0","","","","","null","","","","21","","","","","","","","1","","","","","","","","","","51.391","-0.891","","","","","","","","","","","","","","","","",""
"null","","iti","html-keyboard-response","138","56557","0.0-2.0-44.0-4.0","1","12","0","0","","","","","null","","","","21","","","","","","","","1","","","","","","","","","","50.5","1.5","","","","","","","","","","","","","","","","",""
"74","","deliberation","html-keyboard-response","139","56634","0.0-2.0-46.0-0.0","1","12","0","0","","","","","50","","","","22","0","B","0","1788","right","scramble","2000","1","1","13","29","outdoor_scenes","faces","Stimuli/Experimental_stims/scramble/outdoor_scenes/scrambled_ashim-d-silva-S2Q5mdOrrVc-unsplash.jpg","Stimuli/Experimental_stims/scramble/faces/scrambled_freddy-kearney-o-ioeoATbIM-unsplash.jpg","NaN","NaN","52","1.788","","","","","","","","","","false","1788","","","","","",""
"184","","scramble_instruction","html-keyboard-response","140","56820","0.0-2.0-46.0-1.0-0.0","1","12","0","0","","","","","50","","","","22","0","","","","","","","1","","","","","","","","","","53.788","0.184","1","13","29","outdoor_scenes","faces","","","","","","","0","","","","",""
"null","","deliberation_confirmation","html-keyboard-response","141","56822","0.0-2.0-46.0-2.0-0.0","1","12","0","0","","","","","null","","","","22","","","","","","","","1","","","","","","","","","","53.971999999999994","-0.972","","","","","","","","","","","","","","","","",""
"null","","iti","html-keyboard-response","142","56935","0.0-2.0-46.0-4.0","1","12","0","0","","","","","null","","","","22","","","","","","","","1","","","","","","","","","","52.99999999999999","2","","","","","","","","","","","","","","","","",""
"67","","deliberation","html-keyboard-response","143","57003","0.0-2.0-48.0-0.0","1","12","0","0","","","","","50","","","","23","0","L","0","NaN","NaN","original","2000","1","1","46","32","body_parts","faces","Stimuli/Experimental_stims/body_parts/sincerely-media-VN6DbKajo5s-unsplash.jpg","Stimuli/Experimental_stims/faces/justin-chen-J7Cf1Gch49E-unsplash.jpg","50","50","54.99999999999999","0.067","1","46","32","body_parts","faces","50","50","Stimuli/Experimental_stims/body_parts/sincerely-media-VN6DbKajo5s-unsplash.jpg","Stimuli/Experimental_stims/faces/justin-chen-J7Cf1Gch49E-unsplash.jpg","","","","","","","",""
"null","","deliberation_confirmation","html-keyboard-response","144","57940","0.0-2.0-48.0-2.0-0.0","1","12","0","0","","","","","null","","","","23","","","","","","","","1","","","","","","","","","","55.06699999999999","0.933","","","","","","","","","","","","","","","","",""
"null","","iti","html-keyboard-response","145","58046","0.0-2.0-48.0-4.0","1","12","0","0","","","","","null","","","","23","","","","","","","","1","","","","","","","","","","55.99999999999999","2","","","","","","","","","","","","","","","","",""
"154","","deliberation","html-keyboard-response","146","58203","0.0-2.0-50.0-0.0","1","12","0","0","","","","","50","","","","24","0","D","0","NaN","NaN","original","1000","1","1","56","33","objects","faces","Stimuli/Experimental_stims/objects/jonathan-greenaway-Y4hGgeiFn3s-unsplash.jpg","Stimuli/Experimental_stims/faces/leilani-angel-K84vnnzxmTQ-unsplash.jpg","50","50","57.99999999999999","0.154","1","56","33","objects","faces","50","50","Stimuli/Experimental_stims/objects/jonathan-greenaway-Y4hGgeiFn3s-unsplash.jpg","Stimuli/Experimental_stims/faces/leilani-angel-K84vnnzxmTQ-unsplash.jpg","","","","","","","",""
"null","","deliberation_confirmation","html-keyboard-response","147","59054","0.0-2.0-50.0-2.0-0.0","1","12","0","0","","","","","null","","","","24","","","","","","","","1","","","","","","","","","","58.153999999999996","0.846","","","","","","","","","","","","","","","","",""
"null","","iti","html-keyboard-response","148","59165","0.0-2.0-50.0-4.0","1","12","0","0","","","","","null","","","","24","","","","","","","","1","","","","","","","","","","58.99999999999999","1","","","","","","","","","","","","","","","","",""
"141","","deliberation","html-keyboard-response","149","59308","0.0-2.0-52.0-0.0","1","12","0","0","","","","","50","","","","25","0","C","0","1873","right","scramble","1500","1","1","15","45","outdoor_scenes","body_parts","Stimuli/Experimental_stims/scramble/outdoor_scenes/scrambled_henry-be-NLF6hTe4PAg-unsplash.jpg","Stimuli/Experimental_stims/scramble/body_parts/scrambled_sincerely-media-7TBFwUQA6Xk-unsplash.jpg","NaN","NaN","59.99999999999999","1.873","","","","","","","","","","false","1873","","","","","",""
"214","","scramble_instruction","html-keyboard-response","150","59524","0.0-2.0-52.0-1.0-0.0","1","12","0","0","","","","","50","","","","25","0","","","","","","","1","","","","","","","","","","61.87299999999999","0.214","1","15","45","outdoor_scenes","body_parts","","","","","","","0","","","","",""
"null","","deliberation_confirmation","html-keyboard-response","151","59527","0.0-2.0-52.0-2.0-0.0","1","12","0","0","","","","","null","","","","25","","","","","","","","1","","","","","","","","","","62.08699999999999","-1.087","","","","","","","","","","","","","","","","",""
"null","","iti","html-keyboard-response","152","59638","0.0-2.0-52.0-4.0","1","12","0","0","","","","","null","","","","25","","","","","","","","1","","","","","","","","","","60.999999999999986","1.5","","","","","","","","","","","","","","","","",""
"320","","deliberation","html-keyboard-response","153","59959","0.0-2.0-54.0-0.0","1","12","0","0","","","","","50","","","","26","0","J","0","NaN","NaN","original","1000","1","1","31","51","faces","objects","Stimuli/Experimental_stims/faces/jessica-radanavong-mrYkTuAesKE-unsplash.jpg","Stimuli/Experimental_stims/objects/art-lasovsky-8XddFc6NkBY-unsplash.jpg","50","50","62.499999999999986","0.32","1","31","51","faces","objects","50","50","Stimuli/Experimental_stims/faces/jessica-radanavong-mrYkTuAesKE-unsplash.jpg","Stimuli/Experimental_stims/objects/art-lasovsky-8XddFc6NkBY-unsplash.jpg","","","","","","","",""
"null","","deliberation_confirmation","html-keyboard-response","154","60644","0.0-2.0-54.0-2.0-0.0","1","12","0","0","","","","","null","","","","26","","","","","","","","1","","","","","","","","","","62.819999999999986","0.68","","","","","","","","","","","","","","","","",""
"null","","iti","html-keyboard-response","155","60748","0.0-2.0-54.0-4.0","1","12","0","0","","","","","null","","","","26","","","","","","","","1","","","","","","","","","","63.499999999999986","1","","","","","","","","","","","","","","","","",""
"206","","deliberation","html-keyboard-response","156","60956","0.0-2.0-56.0-0.0","1","12","0","0","","","","","50","","","","27","0","B","0","NaN","NaN","original","2000","1","1","13","29","outdoor_scenes","faces","Stimuli/Experimental_stims/outdoor_scenes/ashim-d-silva-S2Q5mdOrrVc-unsplash.jpg","Stimuli/Experimental_stims/faces/freddy-kearney-o-ioeoATbIM-unsplash.jpg","50","50","64.49999999999999","0.206","1","13","29","outdoor_scenes","faces","50","50","Stimuli/Experimental_stims/outdoor_scenes/ashim-d-silva-S2Q5mdOrrVc-unsplash.jpg","Stimuli/Experimental_stims/faces/freddy-kearney-o-ioeoATbIM-unsplash.jpg","","","","","","","",""
"null","","deliberation_confirmation","html-keyboard-response","157","61757","0.0-2.0-56.0-2.0-0.0","1","12","0","0","","","","","null","","","","27","","","","","","","","1","","","","","","","","","","64.70599999999999","0.794","","","","","","","","","","","","","","","","",""
"null","","iti","html-keyboard-response","158","61864","0.0-2.0-56.0-4.0","1","12","0","0","","","","","null","","","","27","","","","","","","","1","","","","","","","","","","65.49999999999999","2","","","","","","","","","","","","","","","","",""
"186","","deliberation","html-keyboard-response","159","62052","0.0-2.0-58.0-0.0","1","12","0","0","","","","","50","","","","28","0","L","0","NaN","NaN","original","3000","2","1","46","32","body_parts","faces","Stimuli/Experimental_stims/body_parts/sincerely-media-VN6DbKajo5s-unsplash.jpg","Stimuli/Experimental_stims/faces/justin-chen-J7Cf1Gch49E-unsplash.jpg","50","50","67.49999999999999","0.186","1","46","32","body_parts","faces","50","50","Stimuli/Experimental_stims/body_parts/sincerely-media-VN6DbKajo5s-unsplash.jpg","Stimuli/Experimental_stims/faces/justin-chen-J7Cf1Gch49E-unsplash.jpg","","","","","","","",""
"null","","deliberation_confirmation","html-keyboard-response","160","62876","0.0-2.0-58.0-2.0-0.0","1","12","0","0","","","","","null","","","","28","","","","","","","","2","","","","","","","","","","67.68599999999999","0.814","","","","","","","","","","","","","","","","",""
"null","","iti","html-keyboard-response","161","62981","0.0-2.0-58.0-4.0","1","12","0","0","","","","","null","","","","28","","","","","","","","2","","","","","","","","","","68.49999999999999","3","","","","","","","","","","","","","","","","",""
"75","","deliberation","html-keyboard-response","162","63056","0.0-2.0-60.0-0.0","1","12","0","0","","","","","50","","","","29","0","J","0","NaN","NaN","original","2000","2","1","31","51","faces","objects","Stimuli/Experimental_stims/faces/jessica-radanavong-mrYkTuAesKE-unsplash.jpg","Stimuli/Experimental_stims/objects/art-lasovsky-8XddFc6NkBY-unsplash.jpg","50","50","71.49999999999999","0.075","1","31","51","faces","objects","50","50","Stimuli/Experimental_stims/faces/jessica-radanavong-mrYkTuAesKE-unsplash.jpg","Stimuli/Experimental_stims/objects/art-lasovsky-8XddFc6NkBY-unsplash.jpg","","","","","","","",""
"null","","deliberation_confirmation","html-keyboard-response","163","63990","0.0-2.0-60.0-2.0-0.0","1","12","0","0","","","","","null","","","","29","","","","","","","","2","","","","","","","","","","71.57499999999999","0.925","","","","","","","","","","","","","","","","",""
"null","","iti","html-keyboard-response","164","64103","0.0-2.0-60.0-4.0","1","12","0","0","","","","","null","","","","29","","","","","","","","2","","","","","","","","","","72.49999999999999","2","","","","","","","","","","","","","","","","",""
"241","","deliberation","html-keyboard-response","165","64347","0.0-2.0-62.0-0.0","1","12","0","0","","","","","50","","","","30","0","A","0","NaN","NaN","original","1500","2","1","19","55","outdoor_scenes","objects","Stimuli/Experimental_stims/outdoor_scenes/petr-vysohlid-9fqwGqGLUxc-unsplash.jpg","Stimuli/Experimental_stims/objects/jiangxulei1990-eIzzzwtkBjU-unsplash.jpg","50","50","74.49999999999999","0.241","1","19","55","outdoor_scenes","objects","50","50","Stimuli/Experimental_stims/outdoor_scenes/petr-vysohlid-9fqwGqGLUxc-unsplash.jpg","Stimuli/Experimental_stims/objects/jiangxulei1990-eIzzzwtkBjU-unsplash.jpg","","","","","","","",""
"null","","deliberation_confirmation","html-keyboard-response","166","65119","0.0-2.0-62.0-2.0-0.0","1","12","0","0","","","","","null","","","","30","","","","","","","","2","","","","","","","","","","74.74099999999999","0.759","","","","","","","","","","","","","","","","",""
"null","","iti","html-keyboard-response","167","65228","0.0-2.0-62.0-4.0","1","12","0","0","","","","","null","","","","30","","","","","","","","2","","","","","","","","","","75.49999999999999","1.5","","","","","","","","","","","","","","","","",""
"141","","deliberation","html-keyboard-response","168","65372","0.0-2.0-64.0-0.0","1","12","0","0","","","","","50","","","","31","0","J","0","1739","right","scramble","2000","2","1","31","51","faces","objects","Stimuli/Experimental_stims/scramble/faces/scrambled_jessica-radanavong-mrYkTuAesKE-unsplash.jpg","Stimuli/Experimental_stims/scramble/objects/scrambled_art-lasovsky-8XddFc6NkBY-unsplash.jpg","NaN","NaN","76.99999999999999","1.739","","","","","","","","","","false","1739","","","","","",""
"669","","scramble_instruction","html-keyboard-response","169","66043","0.0-2.0-64.0-1.0-0.0","1","12","0","0","","","","","50","","","","31","0","","","","","","","2","","","","","","","","","","78.73899999999999","0.669","1","31","51","faces","objects","","","","","","","0","","","","",""
"null","","deliberation_confirmation","html-keyboard-response","170","66045","0.0-2.0-64.0-2.0-0.0","1","12","0","0","","","","","null","","","","31","","","","","","","","2","","","","","","","","","","79.40799999999999","-1.408","","","","","","","","","","","","","","","","",""
"null","","iti","html-keyboard-response","171","66149","0.0-2.0-64.0-4.0","1","12","0","0","","","","","null","","","","31","","","","","","","","2","","","","","","","","","","77.99999999999999","2","","","","","","","","","","","","","","","","",""
"396","","deliberation","html-keyboard-response","172","66548","0.0-2.0-66.0-0.0","1","12","0","0","","","","","50","","","","32","0","C","0","1297","right","scramble","1000","2","1","15","45","outdoor_scenes","body_parts","Stimuli/Experimental_stims/scramble/outdoor_scenes/scrambled_henry-be-NLF6hTe4PAg-unsplash.jpg","Stimuli/Experimental_stims/scramble/body_parts/scrambled_sincerely-media-7TBFwUQA6Xk-unsplash.jpg","NaN","NaN","79.99999999999999","1.297","","","","","","","","","","false","1297","","","","","",""
"389","","scramble_instruction","html-keyboard-response","173","66938","0.0-2.0-66.0-1.0-0.0","1","12","0","0","","","","","50","","","","32","0","","","","","","","2","","","","","","","","","","81.29699999999998","0.389","1","15","45","outdoor_scenes","body_parts","","","","","","","0","","","","",""
"null","","deliberation_confirmation","html-keyboard-response","174","66941","0.0-2.0-66.0-2.0-0.0","1","12","0","0","","","","","null","","","","32","","","","","","","","2","","","","","","","","","","81.68599999999998","-0.686","","","","","","","","","","","","","","","","",""
"null","","iti","html-keyboard-response","175","67044","0.0-2.0-66.0-4.0","1","12","0","0","","","","","null","","","","32","","","","","","","","2","","","","","","","","","","80.99999999999997","1","","","","","","","","","","","","","","","","",""
"284","","deliberation","html-keyboard-response","176","67331","0.0-2.0-68.0-0.0","1","12","0","0","","","","","50","","","","33","0","K","0","1396","right","scramble","3500","2","1","37","59","body_parts","objects","Stimuli/Experimental_stims/scramble/body_parts/scrambled_engin-akyurt-Q2rfH3GW39c-unsplash.jpg","Stimuli/Experimental_stims/scramble/objects/scrambled_ronaldo-arthur-vidal-Cdz_lvnl37k-unsplash.jpg","NaN","NaN","81.99999999999997","1.396","","","","","","","","","","false","1396","","","","","",""
"431","","scramble_instruction","html-keyboard-response","177","67763","0.0-2.0-68.0-1.0-0.0","1","12","0","0","","","","","50","","","","33","0","","","","","","","2","","","","","","","","","","83.39599999999997","0.431","1","37","59","body_parts","objects","","","","","","","0","","","","",""
"null","","deliberation_confirmation","html-keyboard-response","178","67766","0.0-2.0-68.0-2.0-0.0","1","12","0","0","","","","","null","","","","33","","","","","","","","2","","","","","","","","","","83.82699999999997","-0.827","","","","","","","","","","","","","","","","",""
"null","","iti","html-keyboard-response","179","67869","0.0-2.0-68.0-4.0","1","12","0","0","","","","","null","","","","33","","","","","","","","2","","","","","","","","","","82.99999999999997","3.5","","","","","","","","","","","","","","","","",""
"443","","deliberation","html-keyboard-response","180","68315","0.0-2.0-70.0-0.0","1","12","0","0","","","","","50","","","","34","0","A","0","218","right","scramble","3000","2","1","19","55","outdoor_scenes","objects","Stimuli/Experimental_stims/scramble/outdoor_scenes/scrambled_petr-vysohlid-9fqwGqGLUxc-unsplash.jpg","Stimuli/Experimental_stims/scramble/objects/scrambled_jiangxulei1990-eIzzzwtkBjU-unsplash.jpg","NaN","NaN","86.49999999999997","0.218","","","","","","","","","","false","218","","","","","",""
"494","","scramble_instruction","html-keyboard-response","181","68811","0.0-2.0-70.0-1.0-0.0","1","12","0","0","","","","","50","","","","34","0","","","","","","","2","","","","","","","","","","86.71799999999998","0.494","1","19","55","outdoor_scenes","objects","","","","","","","0","","","","",""
"null","","deliberation_confirmation","html-keyboard-response","182","69108","0.0-2.0-70.0-2.0-0.0","1","12","0","0","","","","","null","","","","34","","","","","","","","2","","","","","","","","","","87.21199999999997","0.288","","","","","","","","","","","","","","","","",""
"null","","iti","html-keyboard-response","183","69212","0.0-2.0-70.0-4.0","1","12","0","0","","","","","null","","","","34","","","","","","","","2","","","","","","","","","","87.49999999999997","3","","","","","","","","","","","","","","","","",""
"372","","deliberation","html-keyboard-response","184","69587","0.0-2.0-72.0-0.0","1","12","0","0","","","","","50","","","","35","0","E","0","1772","left","scramble","1000","2","1","54","36","objects","body_parts","Stimuli/Experimental_stims/scramble/objects/scrambled_jess-bailey-nOeVi8DsN8U-unsplash.jpg","Stimuli/Experimental_stims/scramble/body_parts/scrambled_callum-skelton-3KLMq7y46nA-unsplash.jpg","NaN","NaN","90.49999999999997","1.772","","","","","","","","","","false","1772","","","","","",""
"366","","scramble_instruction","html-keyboard-response","185","69955","0.0-2.0-72.0-1.0-0.0","1","12","0","0","","","","","50","","","","35","0","","","","","","","2","","","","","","","","","","92.27199999999998","0.366","1","54","36","objects","body_parts","","","","","","","1","","","","",""
"null","","deliberation_confirmation","html-keyboard-response","186","69957","0.0-2.0-72.0-2.0-0.0","1","12","0","0","","","","","null","","","","35","","","","","","","","2","","","","","","","","","","92.63799999999998","-1.138","","","","","","","","","","","","","","","","",""
"null","","iti","html-keyboard-response","187","70062","0.0-2.0-72.0-4.0","1","12","0","0","","","","","null","","","","35","","","","","","","","2","","","","","","","","","","91.49999999999997","1","","","","","","","","","","","","","","","","",""
"363","","deliberation","html-keyboard-response","188","70428","0.0-2.0-74.0-0.0","1","12","0","0","","","","","50","","","","36","0","G","0","654","left","scramble","1000","2","1","57","22","objects","outdoor_scenes","Stimuli/Experimental_stims/scramble/objects/scrambled_kuiye-chen-NuOGFo4PudE-unsplash.jpg","Stimuli/Experimental_stims/scramble/outdoor_scenes/scrambled_stephen-leonardi-gyIRjKPXupE-unsplash.jpg","NaN","NaN","92.49999999999997","0.654","","","","","","","","","","false","654","","","","","",""
"509","","scramble_instruction","html-keyboard-response","189","70939","0.0-2.0-74.0-1.0-0.0","1","12","0","0","","","","","50","","","","36","0","","","","","","","2","","","","","","","","","","93.15399999999997","0.509","1","57","22","objects","outdoor_scenes","","","","","","","1","","","","",""
"null","","deliberation_confirmation","html-keyboard-response","190","70941","0.0-2.0-74.0-2.0-0.0","1","12","0","0","","","","","null","","","","36","","","","","","","","2","","","","","","","","","","93.66299999999997","-0.163","","","","","","","","","","","","","","","","",""
"null","","iti","html-keyboard-response","191","71049","0.0-2.0-74.0-4.0","1","12","0","0","","","","","null","","","","36","","","","","","","","2","","","","","","","","","","93.49999999999997","1","","","","","","","","","","","","","","","","",""
"224","","deliberation","html-keyboard-response","192","71275","0.0-2.0-76.0-0.0","1","12","0","0","","","","","50","","","","37","0","H","0","1129","left","scramble","2000","2","1","27","23","faces","outdoor_scenes","Stimuli/Experimental_stims/scramble/faces/scrambled_daniel-rigdon-dXmXKPP2L4E-unsplash.jpg","Stimuli/Experimental_stims/scramble/outdoor_scenes/scrambled_yuriy-bogdanov-W51VK3Obcj0-unsplash.jpg","NaN","NaN","94.49999999999997","1.129","","","","","","","","","","false","1129","","","","","",""
"263","","scramble_instruction","html-keyboard-response","193","71539","0.0-2.0-76.0-1.0-0.0","1","12","0","0","","","","","50","","","","37","0","","","","","","","2","","","","","","","","","","95.62899999999998","0.263","1","27","23","faces","outdoor_scenes","","","","","","","1","","","","",""
"null","","deliberation_confirmation","html-keyboard-response","194","71542","0.0-2.0-76.0-2.0-0.0","1","12","0","0","","","","","null","","","","37","","","","","","","","2","","","","","","","","","","95.89199999999998","-0.392","","","","","","","","","","","","","","","","",""
"null","","iti","html-keyboard-response","195","71644","0.0-2.0-76.0-4.0","1","12","0","0","","","","","null","","","","37","","","","","","","","2","","","","","","","","","","95.49999999999999","2","","","","","","","","","","","","","","","","",""
"164","","deliberation","html-keyboard-response","196","71811","0.0-2.0-78.0-0.0","1","12","0","0","","","","","50","","","","38","0","F","0","NaN","NaN","original","1500","2","1","25","43","faces","body_parts","Stimuli/Experimental_stims/faces/aiony-haust-jmATI5Q_YgY-unsplash.jpg","Stimuli/Experimental_stims/body_parts/megan-menegay-UojxG_BJxnI-unsplash.jpg","50","50","97.49999999999999","0.164","1","25","43","faces","body_parts","50","50","Stimuli/Experimental_stims/faces/aiony-haust-jmATI5Q_YgY-unsplash.jpg","Stimuli/Experimental_stims/body_parts/megan-menegay-UojxG_BJxnI-unsplash.jpg","","","","","","","",""
"null","","deliberation_confirmation","html-keyboard-response","197","72655","0.0-2.0-78.0-2.0-0.0","1","12","0","0","","","","","null","","","","38","","","","","","","","2","","","","","","","","","","97.66399999999999","0.836","","","","","","","","","","","","","","","","",""
"null","","iti","html-keyboard-response","198","72766","0.0-2.0-78.0-4.0","1","12","0","0","","","","","null","","","","38","","","","","","","","2","","","","","","","","","","98.49999999999999","1.5","","","","","","","","","","","","","","","","",""
"456","","deliberation","html-keyboard-response","199","73225","0.0-2.0-80.0-0.0","1","12","0","0","","","","","50","","","","39","0","B","0","1185","right","scramble","1000","2","1","13","29","outdoor_scenes","faces","Stimuli/Experimental_stims/scramble/outdoor_scenes/scrambled_ashim-d-silva-S2Q5mdOrrVc-unsplash.jpg","Stimuli/Experimental_stims/scramble/faces/scrambled_freddy-kearney-o-ioeoATbIM-unsplash.jpg","NaN","NaN","99.99999999999999","1.185","","","","","","","","","","false","1185","","","","","",""
"665","","scramble_instruction","html-keyboard-response","200","73892","0.0-2.0-80.0-1.0-0.0","1","12","0","0","","","","","50","","","","39","0","","","","","","","2","","","","","","","","","","101.18499999999999","0.665","1","13","29","outdoor_scenes","faces","","","","","","","0","","","","",""
"null","","deliberation_confirmation","html-keyboard-response","201","73894","0.0-2.0-80.0-2.0-0.0","1","12","0","0","","","","","null","","","","39","","","","","","","","2","","","","","","","","","","101.85","-0.85","","","","","","","","","","","","","","","","",""
"null","","iti","html-keyboard-response","202","73999","0.0-2.0-80.0-4.0","1","12","0","0","","","","","null","","","","39","","","","","","","","2","","","","","","","","","","101","1","","","","","","","","","","","","","","","","",""
"482","","deliberation","html-keyboard-response","203","74483","0.0-2.0-82.0-0.0","1","12","0","0","","","","","50","","","","40","0","E","0","NaN","NaN","original","3000","2","1","54","36","objects","body_parts","Stimuli/Experimental_stims/objects/jess-bailey-nOeVi8DsN8U-unsplash.jpg","Stimuli/Experimental_stims/body_parts/callum-skelton-3KLMq7y46nA-unsplash.jpg","50","50","102","0.482","1","54","36","objects","body_parts","50","50","Stimuli/Experimental_stims/objects/jess-bailey-nOeVi8DsN8U-unsplash.jpg","Stimuli/Experimental_stims/body_parts/callum-skelton-3KLMq7y46nA-unsplash.jpg","","","","","","","",""
"null","","deliberation_confirmation","html-keyboard-response","204","75007","0.0-2.0-82.0-2.0-0.0","1","12","0","0","","","","","null","","","","40","","","","","","","","2","","","","","","","","","","102.482","0.518","","","","","","","","","","","","","","","","",""
"null","","iti","html-keyboard-response","205","75118","0.0-2.0-82.0-4.0","1","12","0","0","","","","","null","","","","40","","","","","","","","2","","","","","","","","","","103","3","","","","","","","","","","","","","","","","",""
"3","","deliberation","html-keyboard-response","206","75123","0.0-2.0-84.0-0.0","1","12","0","0","","","","","50","","","","41","0","C","0","NaN","NaN","original","3500","2","1","15","45","outdoor_scenes","body_parts","Stimuli/Experimental_stims/outdoor_scenes/henry-be-NLF6hTe4PAg-unsplash.jpg","Stimuli/Experimental_stims/body_parts/sincerely-media-7TBFwUQA6Xk-unsplash.jpg","50","50","106","0.003","1","15","45","outdoor_scenes","body_parts","50","50","Stimuli/Experimental_stims/outdoor_scenes/henry-be-NLF6hTe4PAg-unsplash.jpg","Stimuli/Experimental_stims/body_parts/sincerely-media-7TBFwUQA6Xk-unsplash.jpg","","","","","","","",""
"null","","deliberation_confirmation","html-keyboard-response","207","76124","0.0-2.0-84.0-2.0-0.0","1","12","0","0","","","","","null","","","","41","","","","","","","","2","","","","","","","","","","106.003","0.997","","","","","","","","","","","","","","","","",""
"null","","iti","html-keyboard-response","208","76229","0.0-2.0-84.0-4.0","1","12","0","0","","","","","null","","","","41","","","","","","","","2","","","","","","","","","","107","3.5","","","","","","","","","","","","","","","","",""
"84","","deliberation","html-keyboard-response","209","76315","0.0-2.0-86.0-0.0","1","12","0","0","","","","","50","","","","42","0","D","0","1187","left","scramble","3000","2","1","56","33","objects","faces","Stimuli/Experimental_stims/scramble/objects/scrambled_jonathan-greenaway-Y4hGgeiFn3s-unsplash.jpg","Stimuli/Experimental_stims/scramble/faces/scrambled_leilani-angel-K84vnnzxmTQ-unsplash.jpg","NaN","NaN","110.5","1.187","","","","","","","","","","false","1187","","","","","",""
"590","","scramble_instruction","html-keyboard-response","210","76908","0.0-2.0-86.0-1.0-0.0","1","12","0","0","","","","","50","","","","42","0","","","","","","","2","","","","","","","","","","111.687","0.59","1","56","33","objects","faces","","","","","","","1","","","","",""
"null","","deliberation_confirmation","html-keyboard-response","211","76910","0.0-2.0-86.0-2.0-0.0","1","12","0","0","","","","","null","","","","42","","","","","","","","2","","","","","","","","","","112.277","-0.777","","","","","","","","","","","","","","","","",""
"null","","iti","html-keyboard-response","212","77013","0.0-2.0-86.0-4.0","1","12","0","0","","","","","null","","","","42","","","","","","","","2","","","","","","","","","","111.5","3","","","","","","","","","","","","","","","","",""
"276","","deliberation","html-keyboard-response","213","77291","0.0-2.0-88.0-0.0","1","12","0","0","","","","","50","","","","43","0","L","0","1524","right","scramble","1500","2","1","46","32","body_parts","faces","Stimuli/Experimental_stims/scramble/body_parts/scrambled_sincerely-media-VN6DbKajo5s-unsplash.jpg","Stimuli/Experimental_stims/scramble/faces/scrambled_justin-chen-J7Cf1Gch49E-unsplash.jpg","NaN","NaN","114.5","1.524","","","","","","","","","","false","1524","","","","","",""
"696","","scramble_instruction","html-keyboard-response","214","77988","0.0-2.0-88.0-1.0-0.0","1","12","0","0","","","","","50","","","","43","0","","","","","","","2","","","","","","","","","","116.024","0.696","1","46","32","body_parts","faces","","","","","","","0","","","","",""
"null","","deliberation_confirmation","html-keyboard-response","215","77991","0.0-2.0-88.0-2.0-0.0","1","12","0","0","","","","","null","","","","43","","","","","","","","2","","","","","","","","","","116.72","-1.22","","","","","","","","","","","","","","","","",""
"null","","iti","html-keyboard-response","216","78100","0.0-2.0-88.0-4.0","1","12","0","0","","","","","null","","","","43","","","","","","","","2","","","","","","","","","","115.5","1.5","","","","","","","","","","","","","","","","",""
"420","","deliberation","html-keyboard-response","217","78523","0.0-2.0-90.0-0.0","1","12","0","0","","","","","50","","","","44","0","I","0","NaN","NaN","original","2000","2","1","38","18","body_parts","outdoor_scenes","Stimuli/Experimental_stims/body_parts/engin-akyurt-x_3gyC42btc-unsplash.jpg","Stimuli/Experimental_stims/outdoor_scenes/meng-ji-8BH_M-53CyA-unsplash.jpg","50","50","117","0.42","1","38","18","body_parts","outdoor_scenes","50","50","Stimuli/Experimental_stims/body_parts/engin-akyurt-x_3gyC42btc-unsplash.jpg","Stimuli/Experimental_stims/outdoor_scenes/meng-ji-8BH_M-53CyA-unsplash.jpg","","","","","","","",""
"null","","deliberation_confirmation","html-keyboard-response","218","79110","0.0-2.0-90.0-2.0-0.0","1","12","0","0","","","","","null","","","","44","","","","","","","","2","","","","","","","","","","117.42","0.58","","","","","","","","","","","","","","","","",""
"null","","iti","html-keyboard-response","219","79223","0.0-2.0-90.0-4.0","1","12","0","0","","","","","null","","","","44","","","","","","","","2","","","","","","","","","","118","2","","","","","","","","","","","","","","","","",""
"177","","deliberation","html-keyboard-response","220","79403","0.0-2.0-92.0-0.0","1","12","0","0","","","","","50","","","","45","0","F","0","1787","left","scramble","1500","2","1","25","43","faces","body_parts","Stimuli/Experimental_stims/scramble/faces/scrambled_aiony-haust-jmATI5Q_YgY-unsplash.jpg","Stimuli/Experimental_stims/scramble/body_parts/scrambled_megan-menegay-UojxG_BJxnI-unsplash.jpg","NaN","NaN","120","1.787","","","","","","","","","","false","1787","","","","","",""
"349","","scramble_instruction","html-keyboard-response","221","79753","0.0-2.0-92.0-1.0-0.0","1","12","0","0","","","","","50","","","","45","0","","","","","","","2","","","","","","","","","","121.787","0.349","1","25","43","faces","body_parts","","","","","","","1","","","","",""
"null","","deliberation_confirmation","html-keyboard-response","222","79756","0.0-2.0-92.0-2.0-0.0","1","12","0","0","","","","","null","","","","45","","","","","","","","2","","","","","","","","","","122.13600000000001","-1.136","","","","","","","","","","","","","","","","",""
"null","","iti","html-keyboard-response","223","79861","0.0-2.0-92.0-4.0","1","12","0","0","","","","","null","","","","45","","","","","","","","2","","","","","","","","","","121.00000000000001","1.5","","","","","","","","","","","","","","","","",""
"381","","deliberation","html-keyboard-response","224","80244","0.0-2.0-94.0-0.0","1","12","0","0","","","","","50","","","","46","0","I","0","475","left","scramble","1500","2","1","38","18","body_parts","outdoor_scenes","Stimuli/Experimental_stims/scramble/body_parts/scrambled_engin-akyurt-x_3gyC42btc-unsplash.jpg","Stimuli/Experimental_stims/scramble/outdoor_scenes/scrambled_meng-ji-8BH_M-53CyA-unsplash.jpg","NaN","NaN","122.50000000000001","0.475","","","","","","","","","","false","475","","","","","",""
"565","","scramble_instruction","html-keyboard-response","225","80811","0.0-2.0-94.0-1.0-0.0","1","12","0","0","","","","","50","","","","46","0","","","","","","","2","","","","","","","","","","122.97500000000001","0.565","1","38","18","body_parts","outdoor_scenes","","","","","","","1","","","","",""
"null","","deliberation_confirmation","html-keyboard-response","226","80813","0.0-2.0-94.0-2.0-0.0","1","12","0","0","","","","","null","","","","46","","","","","","","","2","","","","","","","","","","123.54","-0.04","","","","","","","","","","","","","","","","",""
"null","","iti","html-keyboard-response","227","80918","0.0-2.0-94.0-4.0","1","12","0","0","","","","","null","","","","46","","","","","","","","2","","","","","","","","","","123.5","1.5","","","","","","","","","","","","","","","","",""
"419","","deliberation","html-keyboard-response","228","81339","0.0-2.0-96.0-0.0","1","12","0","0","","","","","50","","","","47","0","H","0","NaN","NaN","original","1000","2","1","27","23","faces","outdoor_scenes","Stimuli/Experimental_stims/faces/daniel-rigdon-dXmXKPP2L4E-unsplash.jpg","Stimuli/Experimental_stims/outdoor_scenes/yuriy-bogdanov-W51VK3Obcj0-unsplash.jpg","50","50","125","0.419","1","27","23","faces","outdoor_scenes","50","50","Stimuli/Experimental_stims/faces/daniel-rigdon-dXmXKPP2L4E-unsplash.jpg","Stimuli/Experimental_stims/outdoor_scenes/yuriy-bogdanov-W51VK3Obcj0-unsplash.jpg","","","","","","","",""
"null","","deliberation_confirmation","html-keyboard-response","229","81928","0.0-2.0-96.0-2.0-0.0","1","12","0","0","","","","","null","","","","47","","","","","","","","2","","","","","","","","","","125.419","0.581","","","","","","","","","","","","","","","","",""
"null","","iti","html-keyboard-response","230","82040","0.0-2.0-96.0-4.0","1","12","0","0","","","","","null","","","","47","","","","","","","","2","","","","","","","","","","126","1","","","","","","","","","","","","","","","","",""
"201","","deliberation","html-keyboard-response","231","82243","0.0-2.0-98.0-0.0","1","12","0","0","","","","","50","","","","48","0","K","0","NaN","NaN","original","1000","2","1","37","59","body_parts","objects","Stimuli/Experimental_stims/body_parts/engin-akyurt-Q2rfH3GW39c-unsplash.jpg","Stimuli/Experimental_stims/objects/ronaldo-arthur-vidal-Cdz_lvnl37k-unsplash.jpg","50","50","127","0.201","1","37","59","body_parts","objects","50","50","Stimuli/Experimental_stims/body_parts/engin-akyurt-Q2rfH3GW39c-unsplash.jpg","Stimuli/Experimental_stims/objects/ronaldo-arthur-vidal-Cdz_lvnl37k-unsplash.jpg","","","","","","","",""
"null","","deliberation_confirmation","html-keyboard-response","232","83056","0.0-2.0-98.0-2.0-0.0","1","12","0","0","","","","","null","","","","48","","","","","","","","2","","","","","","","","","","127.201","0.799","","","","","","","","","","","","","","","","",""
"null","","iti","html-keyboard-response","233","83166","0.0-2.0-98.0-4.0","1","12","0","0","","","","","null","","","","48","","","","","","","","2","","","","","","","","","","128","1","","","","","","","","","","","","","","","","",""
"228","","deliberation","html-keyboard-response","234","83396","0.0-2.0-100.0-0.0","1","12","0","0","","","","","50","","","","49","0","G","0","NaN","NaN","original","1000","2","1","57","22","objects","outdoor_scenes","Stimuli/Experimental_stims/objects/kuiye-chen-NuOGFo4PudE-unsplash.jpg","Stimuli/Experimental_stims/outdoor_scenes/stephen-leonardi-gyIRjKPXupE-unsplash.jpg","50","50","129","0.228","1","57","22","objects","outdoor_scenes","50","50","Stimuli/Experimental_stims/objects/kuiye-chen-NuOGFo4PudE-unsplash.jpg","Stimuli/Experimental_stims/outdoor_scenes/stephen-leonardi-gyIRjKPXupE-unsplash.jpg","","","","","","","",""
"null","","deliberation_confirmation","html-keyboard-response","235","84175","0.0-2.0-100.0-2.0-0.0","1","12","0","0","","","","","null","","","","49","","","","","","","","2","","","","","","","","","","129.228","0.772","","","","","","","","","","","","","","","","",""
"null","","iti","html-keyboard-response","236","84285","0.0-2.0-100.0-4.0","1","12","0","0","","","","","null","","","","49","","","","","","","","2","","","","","","","","","","130","1","","","","","","","","","","","","","","","","",""
"99","","deliberation","html-keyboard-response","237","84387","0.0-2.0-102.0-0.0","1","12","0","0","","","","","50","","","","50","0","B","0","NaN","NaN","original","1000","2","1","13","29","outdoor_scenes","faces","Stimuli/Experimental_stims/outdoor_scenes/ashim-d-silva-S2Q5mdOrrVc-unsplash.jpg","Stimuli/Experimental_stims/faces/freddy-kearney-o-ioeoATbIM-unsplash.jpg","50","50","131","0.099","1","13","29","outdoor_scenes","faces","50","50","Stimuli/Experimental_stims/outdoor_scenes/ashim-d-silva-S2Q5mdOrrVc-unsplash.jpg","Stimuli/Experimental_stims/faces/freddy-kearney-o-ioeoATbIM-unsplash.jpg","","","","","","","",""
"null","","deliberation_confirmation","html-keyboard-response","238","85297","0.0-2.0-102.0-2.0-0.0","1","12","0","0","","","","","null","","","","50","","","","","","","","2","","","","","","","","","","131.099","0.901","","","","","","","","","","","","","","","","",""
"null","","iti","html-keyboard-response","239","85407","0.0-2.0-102.0-4.0","1","12","0","0","","","","","null","","","","50","","","","","","","","2","","","","","","","","","","132","1","","","","","","","","","","","","","","","","",""
"435","","deliberation","html-keyboard-response","240","85843","0.0-2.0-104.0-0.0","1","12","0","0","","","","","50","","","","51","0","D","0","NaN","NaN","original","1500","2","1","56","33","objects","faces","Stimuli/Experimental_stims/objects/jonathan-greenaway-Y4hGgeiFn3s-unsplash.jpg","Stimuli/Experimental_stims/faces/leilani-angel-K84vnnzxmTQ-unsplash.jpg","50","50","133","0.435","1","56","33","objects","faces","50","50","Stimuli/Experimental_stims/objects/jonathan-greenaway-Y4hGgeiFn3s-unsplash.jpg","Stimuli/Experimental_stims/faces/leilani-angel-K84vnnzxmTQ-unsplash.jpg","","","","","","","",""
"null","","deliberation_confirmation","html-keyboard-response","241","86413","0.0-2.0-104.0-2.0-0.0","1","12","0","0","","","","","null","","","","51","","","","","","","","2","","","","","","","","","","133.435","0.565","","","","","","","","","","","","","","","","",""
"null","","iti","html-keyboard-response","242","86517","0.0-2.0-104.0-4.0","1","12","0","0","","","","","null","","","","51","","","","","","","","2","","","","","","","","","","134","1.5","","","","","","","","","","","","","","","","",""
"2149","","deliberation_block_over","html-keyboard-response","243","88668","0.0-2.0-104.0-6.0-0.0","1","12","0","0","","","","","83","","","","51","","","","","","","","","","","","","","","","","","","","","","","","","","","","","","","","","","","",""
"718","","start_run","html-keyboard-response","244","89387","0.0-2.0-104.0-6.0-1.0","1","12","0","0","","","","","84","","","","","","","","","","","","","","","","","","","","","","","","","","","","","","","","","","","","","","","",""
"359","","deliberation","html-keyboard-response","245","89747","0.0-2.0-106.0-0.0","1","12","0","0","","","","","50","","","","52","0","H","0","1450","left","scramble","1000","3","2","27","23","faces","outdoor_scenes","Stimuli/Experimental_stims/scramble/faces/scrambled_daniel-rigdon-dXmXKPP2L4E-unsplash.jpg","Stimuli/Experimental_stims/scramble/outdoor_scenes/scrambled_yuriy-bogdanov-W51VK3Obcj0-unsplash.jpg","NaN","NaN","0","1.45","","","","","","","","","","false","1450","","","","","",""
"535","","scramble_instruction","html-keyboard-response","246","90283","0.0-2.0-106.0-1.0-0.0","1","12","0","0","","","","","50","","","","52","0","","","","","","","3","","","","","","","","","","1.45","0.535","1","27","23","faces","outdoor_scenes","","","","","","","1","","","","",""
"null","","deliberation_confirmation","html-keyboard-response","247","90286","0.0-2.0-106.0-2.0-0.0","1","12","0","0","","","","","null","","","","52","","","","","","","","3","","","","","","","","","","1.9849999999999999","-0.985","","","","","","","","","","","","","","","","",""
"null","","iti","html-keyboard-response","248","90390","0.0-2.0-106.0-4.0","1","12","0","0","","","","","null","","","","52","","","","","","","","3","","","","","","","","","","0.9999999999999999","1","","","","","","","","","","","","","","","","",""
"186","","deliberation","html-keyboard-response","249","90578","0.0-2.0-108.0-0.0","1","12","0","0","","","","","50","","","","53","0","B","0","421","right","scramble","3500","3","2","13","29","outdoor_scenes","faces","Stimuli/Experimental_stims/scramble/outdoor_scenes/scrambled_ashim-d-silva-S2Q5mdOrrVc-unsplash.jpg","Stimuli/Experimental_stims/scramble/faces/scrambled_freddy-kearney-o-ioeoATbIM-unsplash.jpg","NaN","NaN","2","0.421","","","","","","","","","","false","421","","","","","",""
"312","","scramble_instruction","html-keyboard-response","250","90892","0.0-2.0-108.0-1.0-0.0","1","12","0","0","","","","","50","","","","53","0","","","","","","","3","","","","","","","","","","2.421","0.312","1","13","29","outdoor_scenes","faces","","","","","","","0","","","","",""
"null","","deliberation_confirmation","html-keyboard-response","251","91166","0.0-2.0-108.0-2.0-0.0","1","12","0","0","","","","","null","","","","53","","","","","","","","3","","","","","","","","","","2.7329999999999997","0.267","","","","","","","","","","","","","","","","",""
"null","","iti","html-keyboard-response","252","91280","0.0-2.0-108.0-4.0","1","12","0","0","","","","","null","","","","53","","","","","","","","3","","","","","","","","","","2.9999999999999996","3.5","","","","","","","","","","","","","","","","",""
"56","","deliberation","html-keyboard-response","253","91339","0.0-2.0-110.0-0.0","1","12","0","0","","","","","50","","","","54","0","G","0","NaN","NaN","original","1500","3","2","57","22","objects","outdoor_scenes","Stimuli/Experimental_stims/objects/kuiye-chen-NuOGFo4PudE-unsplash.jpg","Stimuli/Experimental_stims/outdoor_scenes/stephen-leonardi-gyIRjKPXupE-unsplash.jpg","50","50","6.5","0.056","1","57","22","objects","outdoor_scenes","50","50","Stimuli/Experimental_stims/objects/kuiye-chen-NuOGFo4PudE-unsplash.jpg","Stimuli/Experimental_stims/outdoor_scenes/stephen-leonardi-gyIRjKPXupE-unsplash.jpg","","","","","","","",""
"null","","deliberation_confirmation","html-keyboard-response","254","92293","0.0-2.0-110.0-2.0-0.0","1","12","0","0","","","","","null","","","","54","","","","","","","","3","","","","","","","","","","6.556","0.944","","","","","","","","","","","","","","","","",""
"null","","iti","html-keyboard-response","255","92399","0.0-2.0-110.0-4.0","1","12","0","0","","","","","null","","","","54","","","","","","","","3","","","","","","","","","","7.5","1.5","","","","","","","","","","","","","","","","",""
"106","","deliberation","html-keyboard-response","256","92508","0.0-2.0-112.0-0.0","1","12","0","0","","","","","50","","","","55","0","K","0","1225","right","scramble","3000","3","2","37","59","body_parts","objects","Stimuli/Experimental_stims/scramble/body_parts/scrambled_engin-akyurt-Q2rfH3GW39c-unsplash.jpg","Stimuli/Experimental_stims/scramble/objects/scrambled_ronaldo-arthur-vidal-Cdz_lvnl37k-unsplash.jpg","NaN","NaN","9","1.225","","","","","","","","","","false","1225","","","","","",""
"470","","scramble_instruction","html-keyboard-response","257","92979","0.0-2.0-112.0-1.0-0.0","1","12","0","0","","","","","50","","","","55","0","","","","","","","3","","","","","","","","","","10.225","0.47","1","37","59","body_parts","objects","","","","","","","0","","","","",""
"null","","deliberation_confirmation","html-keyboard-response","258","92982","0.0-2.0-112.0-2.0-0.0","1","12","0","0","","","","","null","","","","55","","","","","","","","3","","","","","","","","","","10.695","-0.695","","","","","","","","","","","","","","","","",""
"null","","iti","html-keyboard-response","259","93086","0.0-2.0-112.0-4.0","1","12","0","0","","","","","null","","","","55","","","","","","","","3","","","","","","","","","","10","3","","","","","","","","","","","","","","","","",""
"236","","deliberation","html-keyboard-response","260","93323","0.0-2.0-114.0-0.0","1","12","0","0","","","","","50","","","","56","0","E","0","NaN","NaN","original","2000","3","2","54","36","objects","body_parts","Stimuli/Experimental_stims/objects/jess-bailey-nOeVi8DsN8U-unsplash.jpg","Stimuli/Experimental_stims/body_parts/callum-skelton-3KLMq7y46nA-unsplash.jpg","50","50","13","0.236","1","54","36","objects","body_parts","50","50","Stimuli/Experimental_stims/objects/jess-bailey-nOeVi8DsN8U-unsplash.jpg","Stimuli/Experimental_stims/body_parts/callum-skelton-3KLMq7y46nA-unsplash.jpg","","","","","","","",""
"null","","deliberation_confirmation","html-keyboard-response","261","94092","0.0-2.0-114.0-2.0-0.0","1","12","0","0","","","","","null","","","","56","","","","","","","","3","","","","","","","","","","13.236","0.764","","","","","","","","","","","","","","","","",""
"null","","iti","html-keyboard-response","262","94198","0.0-2.0-114.0-4.0","1","12","0","0","","","","","null","","","","56","","","","","","","","3","","","","","","","","","","14","2","","","","","","","","","","","","","","","","",""
"131","","deliberation","html-keyboard-response","263","94331","0.0-2.0-116.0-0.0","1","12","0","0","","","","","50","","","","57","0","D","0","674","right","scramble","1500","3","2","56","33","objects","faces","Stimuli/Experimental_stims/scramble/objects/scrambled_jonathan-greenaway-Y4hGgeiFn3s-unsplash.jpg","Stimuli/Experimental_stims/scramble/faces/scrambled_leilani-angel-K84vnnzxmTQ-unsplash.jpg","NaN","NaN","16","0.674","","","","","","","","","","false","674","","","","","",""
"567","","scramble_instruction","html-keyboard-response","264","94900","0.0-2.0-116.0-1.0-0.0","1","12","0","0","","","","","50","","","","57","0","","","","","","","3","","","","","","","","","","16.674","0.567","1","56","33","objects","faces","","","","","","","0","","","","",""
"null","","deliberation_confirmation","html-keyboard-response","265","94903","0.0-2.0-116.0-2.0-0.0","1","12","0","0","","","","","null","","","","57","","","","","","","","3","","","","","","","","","","17.241","-0.241","","","","","","","","","","","","","","","","",""
"null","","iti","html-keyboard-response","266","95006","0.0-2.0-116.0-4.0","1","12","0","0","","","","","null","","","","57","","","","","","","","3","","","","","","","","","","17","1.5","","","","","","","","","","","","","","","","",""
"226","","deliberation","html-keyboard-response","267","95235","0.0-2.0-118.0-0.0","1","12","0","0","","","","","50","","","","58","0","B","0","NaN","NaN","original","1500","3","2","13","29","outdoor_scenes","faces","Stimuli/Experimental_stims/outdoor_scenes/ashim-d-silva-S2Q5mdOrrVc-unsplash.jpg","Stimuli/Experimental_stims/faces/freddy-kearney-o-ioeoATbIM-unsplash.jpg","50","50","18.5","0.226","1","13","29","outdoor_scenes","faces","50","50","Stimuli/Experimental_stims/outdoor_scenes/ashim-d-silva-S2Q5mdOrrVc-unsplash.jpg","Stimuli/Experimental_stims/faces/freddy-kearney-o-ioeoATbIM-unsplash.jpg","","","","","","","",""
"null","","deliberation_confirmation","html-keyboard-response","268","96014","0.0-2.0-118.0-2.0-0.0","1","12","0","0","","","","","null","","","","58","","","","","","","","3","","","","","","","","","","18.726","0.774","","","","","","","","","","","","","","","","",""
"null","","iti","html-keyboard-response","269","96128","0.0-2.0-118.0-4.0","1","12","0","0","","","","","null","","","","58","","","","","","","","3","","","","","","","","","","19.5","1.5","","","","","","","","","","","","","","","","",""
"249","","deliberation","html-keyboard-response","270","96379","0.0-2.0-120.0-0.0","1","12","0","0","","","","","50","","","","59","0","G","0","643","left","scramble","2000","3","2","57","22","objects","outdoor_scenes","Stimuli/Experimental_stims/scramble/objects/scrambled_kuiye-chen-NuOGFo4PudE-unsplash.jpg","Stimuli/Experimental_stims/scramble/outdoor_scenes/scrambled_stephen-leonardi-gyIRjKPXupE-unsplash.jpg","NaN","NaN","21","0.643","","","","","","","","","","false","643","","","","","",""
"527","","scramble_instruction","html-keyboard-response","271","96907","0.0-2.0-120.0-1.0-0.0","1","12","0","0","","","","","50","","","","59","0","","","","","","","3","","","","","","","","","","21.643","0.527","1","57","22","objects","outdoor_scenes","","","","","","","1","","","","",""
"null","","deliberation_confirmation","html-keyboard-response","272","96910","0.0-2.0-120.0-2.0-0.0","1","12","0","0","","","","","null","","","","59","","","","","","","","3","","","","","","","","","","22.17","-0.17","","","","","","","","","","","","","","","","",""
"null","","iti","html-keyboard-response","273","97020","0.0-2.0-120.0-4.0","1","12","0","0","","","","","null","","","","59","","","","","","","","3","","","","","","","","","","22","2","","","","","","","","","","","","","","","","",""
"196","","deliberation","html-keyboard-response","274","97219","0.0-2.0-122.0-0.0","1","12","0","0","","","","","50","","","","60","0","A","0","NaN","NaN","original","3000","3","2","19","55","outdoor_scenes","objects","Stimuli/Experimental_stims/outdoor_scenes/petr-vysohlid-9fqwGqGLUxc-unsplash.jpg","Stimuli/Experimental_stims/objects/jiangxulei1990-eIzzzwtkBjU-unsplash.jpg","50","50","24","0.196","1","19","55","outdoor_scenes","objects","50","50","Stimuli/Experimental_stims/outdoor_scenes/petr-vysohlid-9fqwGqGLUxc-unsplash.jpg","Stimuli/Experimental_stims/objects/jiangxulei1990-eIzzzwtkBjU-unsplash.jpg","","","","","","","",""
"null","","deliberation_confirmation","html-keyboard-response","275","98030","0.0-2.0-122.0-2.0-0.0","1","12","0","0","","","","","null","","","","60","","","","","","","","3","","","","","","","","","","24.196","0.804","","","","","","","","","","","","","","","","",""
"null","","iti","html-keyboard-response","276","98139","0.0-2.0-122.0-4.0","1","12","0","0","","","","","null","","","","60","","","","","","","","3","","","","","","","","","","25","3","","","","","","","","","","","","","","","","",""
"158","","deliberation","html-keyboard-response","277","98299","0.0-2.0-124.0-0.0","1","12","0","0","","","","","50","","","","61","0","A","0","1092","left","scramble","3000","3","2","19","55","outdoor_scenes","objects","Stimuli/Experimental_stims/scramble/outdoor_scenes/scrambled_petr-vysohlid-9fqwGqGLUxc-unsplash.jpg","Stimuli/Experimental_stims/scramble/objects/scrambled_jiangxulei1990-eIzzzwtkBjU-unsplash.jpg","NaN","NaN","28","1.092","","","","","","","","","","false","1092","","","","","",""
"999","","scramble_instruction","html-keyboard-response","278","99300","0.0-2.0-124.0-1.0-0.0","1","12","0","0","","","","","50","","","","61","0","","","","","","","3","","","","","","","","","","29.092","0.999","1","19","55","outdoor_scenes","objects","","","","","","","1","","","","",""
"null","","deliberation_confirmation","html-keyboard-response","279","99303","0.0-2.0-124.0-2.0-0.0","1","12","0","0","","","","","null","","","","61","","","","","","","","3","","","","","","","","","","30.090999999999998","-1.091","","","","","","","","","","","","","","","","",""
"null","","iti","html-keyboard-response","280","99406","0.0-2.0-124.0-4.0","1","12","0","0","","","","","null","","","","61","","","","","","","","3","","","","","","","","","","28.999999999999996","3","","","","","","","","","","","","","","","","",""
"283","","deliberation","html-keyboard-response","281","99691","0.0-2.0-126.0-0.0","1","12","0","0","","","","","50","","","","62","0","H","0","NaN","NaN","original","2000","3","2","27","23","faces","outdoor_scenes","Stimuli/Experimental_stims/faces/daniel-rigdon-dXmXKPP2L4E-unsplash.jpg","Stimuli/Experimental_stims/outdoor_scenes/yuriy-bogdanov-W51VK3Obcj0-unsplash.jpg","50","50","31.999999999999996","0.283","1","27","23","faces","outdoor_scenes","50","50","Stimuli/Experimental_stims/faces/daniel-rigdon-dXmXKPP2L4E-unsplash.jpg","Stimuli/Experimental_stims/outdoor_scenes/yuriy-bogdanov-W51VK3Obcj0-unsplash.jpg","","","","","","","",""
"null","","deliberation_confirmation","html-keyboard-response","282","100415","0.0-2.0-126.0-2.0-0.0","1","12","0","0","","","","","null","","","","62","","","","","","","","3","","","","","","","","","","32.282999999999994","0.717","","","","","","","","","","","","","","","","",""
"null","","iti","html-keyboard-response","283","100528","0.0-2.0-126.0-4.0","1","12","0","0","","","","","null","","","","62","","","","","","","","3","","","","","","","","","","32.99999999999999","2","","","","","","","","","","","","","","","","",""
"229","","deliberation","html-keyboard-response","284","100760","0.0-2.0-128.0-0.0","1","12","0","0","","","","","50","","","","63","0","F","0","NaN","NaN","original","1000","3","2","25","43","faces","body_parts","Stimuli/Experimental_stims/faces/aiony-haust-jmATI5Q_YgY-unsplash.jpg","Stimuli/Experimental_stims/body_parts/megan-menegay-UojxG_BJxnI-unsplash.jpg","50","50","34.99999999999999","0.229","1","25","43","faces","body_parts","50","50","Stimuli/Experimental_stims/faces/aiony-haust-jmATI5Q_YgY-unsplash.jpg","Stimuli/Experimental_stims/body_parts/megan-menegay-UojxG_BJxnI-unsplash.jpg","","","","","","","",""
"null","","deliberation_confirmation","html-keyboard-response","285","101540","0.0-2.0-128.0-2.0-0.0","1","12","0","0","","","","","null","","","","63","","","","","","","","3","","","","","","","","","","35.22899999999999","0.771","","","","","","","","","","","","","","","","",""
"null","","iti","html-keyboard-response","286","101643","0.0-2.0-128.0-4.0","1","12","0","0","","","","","null","","","","63","","","","","","","","3","","","","","","","","","","35.99999999999999","1","","","","","","","","","","","","","","","","",""
"0","","deliberation","html-keyboard-response","287","101645","0.0-2.0-130.0-0.0","1","12","0","0","","","","","50","","","","64","0","J","0","1951","right","scramble","1000","3","2","31","51","faces","objects","Stimuli/Experimental_stims/scramble/faces/scrambled_jessica-radanavong-mrYkTuAesKE-unsplash.jpg","Stimuli/Experimental_stims/scramble/objects/scrambled_art-lasovsky-8XddFc6NkBY-unsplash.jpg","NaN","NaN","36.99999999999999","1.951","","","","","","","","","","false","1951","","","","","",""
"404","","scramble_instruction","html-keyboard-response","288","102051","0.0-2.0-130.0-1.0-0.0","1","12","0","0","","","","","50","","","","64","0","","","","","","","3","","","","","","","","","","38.95099999999999","0.404","1","31","51","faces","objects","","","","","","","0","","","","",""
"null","","deliberation_confirmation","html-keyboard-response","289","102053","0.0-2.0-130.0-2.0-0.0","1","12","0","0","","","","","null","","","","64","","","","","","","","3","","","","","","","","","","39.355","-1.355","","","","","","","","","","","","","","","","",""
"null","","iti","html-keyboard-response","290","102156","0.0-2.0-130.0-4.0","1","12","0","0","","","","","null","","","","64","","","","","","","","3","","","","","","","","","","38","1","","","","","","","","","","","","","","","","",""
"285","","deliberation","html-keyboard-response","291","102444","0.0-2.0-132.0-0.0","1","12","0","0","","","","","50","","","","65","0","F","0","1293","left","scramble","2000","3","2","25","43","faces","body_parts","Stimuli/Experimental_stims/scramble/faces/scrambled_aiony-haust-jmATI5Q_YgY-unsplash.jpg","Stimuli/Experimental_stims/scramble/body_parts/scrambled_megan-menegay-UojxG_BJxnI-unsplash.jpg","NaN","NaN","39","1.293","","","","","","","","","","false","1293","","","","","",""
"398","","scramble_instruction","html-keyboard-response","292","102844","0.0-2.0-132.0-1.0-0.0","1","12","0","0","","","","","50","","","","65","0","","","","","","","3","","","","","","","","","","40.293","0.398","1","25","43","faces","body_parts","","","","","","","1","","","","",""
