[{"init_locations":[{"src":"http://localhost:8000/images/2_5.jpg","x":317,"y":87},{"src":"http://localhost:8000/images/2_6.jpg","x":478,"y":87},{"src":"http://localhost:8000/images/2_7.jpg","x":640,"y":87},{"src":"http://localhost:8000/images/2_8.jpg","x":801,"y":87}],"moves":[{"src":"http://localhost:8000/images/2_8.jpg","x":801,"y":325,"move_time":1264.300000000745},{"src":"http://localhost:8000/images/2_7.jpg","x":640,"y":325,"move_time":1173.199999999255},{"src":"http://localhost:8000/images/2_6.jpg","x":478,"y":325,"move_time":783.1999999992549}],"final_locations":[{"final":{"src":"http://localhost:8000/images/2_6.jpg","x":478,"y":325,"move_time":783.1999999992549}}],"stars_time":[339.3999999985099],"end_time":[4708.39999999851],"rt":4369,"trial_type":"order","trial_index":0,"time_elapsed":4366,"internal_node_id":"0.0-0.0","subject":1688416954147,"condition":"conditionC"},{"rt":1066.800000000745,"stimulus":"<p>How difficult was it to order the pictures?</p>","button_pressed":"2","trial_type":"html-button-response","trial_index":1,"time_elapsed":5434,"internal_node_id":"0.0-1.0","subject":1688416954147,"condition":"conditionC"},{"rt":942.5,"responses":"{\"Q0\":\"\"}","trial_type":"survey-text","trial_index":2,"time_elapsed":6378,"internal_node_id":"0.0-2.0","subject":1688416954147,"condition":"conditionC"},{"init_locations":[{"src":"http://localhost:8000/images/7_1.jpg","x":317,"y":87},{"src":"http://localhost:8000/images/7_2.jpg","x":478,"y":87},{"src":"http://localhost:8000/images/7_4.jpg","x":640,"y":87},{"src":"http://localhost:8000/images/7_3.jpg","x":801,"y":87}],"moves":[{"src":"http://localhost:8000/images/7_2.jpg","x":478,"y":325,"move_time":1011.1000000014901},{"src":"http://localhost:8000/images/7_1.jpg","x":317,"y":325,"move_time":724.1999999992549},{"src":"http://localhost:8000/images/7_4.jpg","x":640,"y":325,"move_time":784.1000000014901}],"final_locations":[{"final":{"src":"http://localhost:8000/images/7_4.jpg","x":640,"y":325,"move_time":784.1000000014901}}],"stars_time":[6720.89999999851],"end_time":[10180.599999997765],"rt":3459.699999999255,"trial_type":"order","trial_index":3,"time_elapsed":9838,"internal_node_id":"0.0-3.0","subject":1688416954147,"condition":"conditionC"},{"rt":1038.7999999970198,"stimulus":"<p>How difficult was it to order the pictures?</p>","button_pressed":"1","trial_type":"html-button-response","trial_index":4,"time_elapsed":10878,"internal_node_id":"0.0-4.0","subject":1688416954147,"condition":"conditionC"},{"rt":1859,"responses":"{\"Q0\":\"\"}","trial_type":"survey-text","trial_index":5,"time_elapsed":12738,"internal_node_id":"0.0-5.0","subject":1688416954147,"condition":"conditionC"},{"init_locations":[{"src":"http://localhost:8000/images/5_4.jpg","x":317,"y":87},{"src":"http://localhost:8000/images/5_1.jpg","x":478,"y":87},{"src":"http://localhost:8000/images/5_3.jpg","x":640,"y":87},{"src":"http://localhost:8000/images/5_2.jpg","x":801,"y":87}],"moves":[{"src":"http://localhost:8000/images/5_1.jpg","x":478,"y":325,"move_time":1040.1000000014901},{"src":"http://localhost:8000/images/5_4.jpg","x":317,"y":325,"move_time":824.5},{"src":"http://localhost:8000/images/5_3.jpg","x":640,"y":325,"move_time":894.1999999992549}],"final_locations":[{"final":{"src":"http://localhost:8000/images/5_3.jpg","x":640,"y":325,"move_time":894.1999999992549}}],"stars_time":[13081.099999997765],"end_time":[16444.199999999255],"rt":3363.10000000149,"trial_type":"order","trial_index":6,"time_elapsed":16102,"internal_node_id":"0.0-6.0","subject":1688416954147,"condition":"conditionC"},{"rt":748.8999999985099,"stimulus":"<p>How difficult was it to order the pictures?</p>","button_pressed":"2","trial_type":"html-button-response","trial_index":7,"time_elapsed":16854,"internal_node_id":"0.0-7.0","subject":1688416954147,"condition":"conditionC"},{"rt":1018.8000000007451,"responses":"{\"Q0\":\"\"}","trial_type":"survey-text","trial_index":8,"time_elapsed":17874,"internal_node_id":"0.0-8.0","subject":1688416954147,"condition":"conditionC"},{"init_locations":[{"src":"http://localhost:8000/images/1_4.jpg","x":317,"y":87},{"src":"http://localhost:8000/images/1_3.jpg","x":478,"y":87},{"src":"http://localhost:8000/images/1_2.jpg","x":640,"y":87},{"src":"http://localhost:8000/images/1_1.jpg","x":801,"y":87}],"moves":[{"src":"http://localhost:8000/images/1_3.jpg","x":478,"y":325,"move_time":852.5},{"src":"http://localhost:8000/images/1_2.jpg","x":640,"y":325,"move_time":736},{"src":"http://localhost:8000/images/1_1.jpg","x":801,"y":325,"move_time":675}],"final_locations":[{"final":{"src":"http://localhost:8000/images/1_1.jpg","x":801,"y":325,"move_time":675}}],"stars_time":[18216.800000000745],"end_time":[21084.39999999851],"rt":2867.599999997765,"trial_type":"order","trial_index":9,"time_elapsed":20742,"internal_node_id":"0.0-9.0","subject":1688416954147,"condition":"conditionC"},{"rt":1022.9000000022352,"stimulus":"<p>How difficult was it to order the pictures?</p>","button_pressed":"2","trial_type":"html-button-response","trial_index":10,"time_elapsed":21766,"internal_node_id":"0.0-10.0","subject":1688416954147,"condition":"conditionC"},{"rt":871.1999999992549,"responses":"{\"Q0\":\"\"}","trial_type":"survey-text","trial_index":11,"time_elapsed":22638,"internal_node_id":"0.0-11.0","subject":1688416954147,"condition":"conditionC"},{"init_locations":[{"src":"http://localhost:8000/images/6_5.jpg","x":317,"y":87},{"src":"http://localhost:8000/images/6_6.jpg","x":478,"y":87},{"src":"http://localhost:8000/images/6_7.jpg","x":640,"y":87},{"src":"http://localhost:8000/images/6_8.jpg","x":801,"y":87}],"moves":[{"src":"http://localhost:8000/images/6_6.jpg","x":478,"y":325,"move_time":1232},{"src":"http://localhost:8000/images/6_5.jpg","x":317,"y":325,"move_time":623.3000000007451},{"src":"http://localhost:8000/images/6_7.jpg","x":640,"y":325,"move_time":720.1000000014901}],"final_locations":[{"final":{"src":"http://localhost:8000/images/6_7.jpg","x":640,"y":325,"move_time":720.1000000014901}}],"stars_time":[22981.099999997765],"end_time":[26160.199999999255],"rt":3179.10000000149,"trial_type":"order","trial_index":12,"time_elapsed":25817,"internal_node_id":"0.0-12.0","subject":1688416954147,"condition":"conditionC"},{"rt":771.4000000022352,"stimulus":"<p>How difficult was it to order the pictures?</p>","button_pressed":"2","trial_type":"html-button-response","trial_index":13,"time_elapsed":26590,"internal_node_id":"0.0-13.0","subject":1688416954147,"condition":"conditionC"},{"rt":1022.7999999970198,"responses":"{\"Q0\":\"\"}","trial_type":"survey-text","trial_index":14,"time_elapsed":27614,"internal_node_id":"0.0-14.0","subject":1688416954147,"condition":"conditionC"},{"init_locations":[{"src":"http://localhost:8000/images/4_5.jpg","x":317,"y":87},{"src":"http://localhost:8000/images/4_6.jpg","x":478,"y":87},{"src":"http://localhost:8000/images/4_7.jpg","x":640,"y":87},{"src":"http://localhost:8000/images/4_8.jpg","x":801,"y":87}],"moves":[{"src":"http://localhost:8000/images/4_6.jpg","x":478,"y":325,"move_time":1077.1000000014901},{"src":"http://localhost:8000/images/4_7.jpg","x":640,"y":325,"move_time":754.8000000007451},{"src":"http://localhost:8000/images/4_5.jpg","x":317,"y":325,"move_time":814.5999999977648}],"final_locations":[{"final":{"src":"http://localhost:8000/images/4_5.jpg","x":317,"y":325,"move_time":814.5999999977648}}],"stars_time":[27957.099999997765],"end_time":[31384.099999997765],"rt":3427,"trial_type":"order","trial_index":15,"time_elapsed":31041,"internal_node_id":"0.0-15.0","subject":1688416954147,"condition":"conditionC"},{"rt":783.0999999977648,"stimulus":"<p>How difficult was it to order the pictures?</p>","button_pressed":"2","trial_type":"html-button-response","trial_index":16,"time_elapsed":31825,"internal_node_id":"0.0-16.0","subject":1688416954147,"condition":"conditionC"},{"rt":1163.199999999255,"responses":"{\"Q0\":\"\"}","trial_type":"survey-text","trial_index":17,"time_elapsed":32990,"internal_node_id":"0.0-17.0","subject":1688416954147,"condition":"conditionC"},{"init_locations":[{"src":"http://localhost:8000/images/9_3.jpg","x":317,"y":87},{"src":"http://localhost:8000/images/9_1.jpg","x":478,"y":87},{"src":"http://localhost:8000/images/9_2.jpg","x":640,"y":87},{"src":"http://localhost:8000/images/9_4.jpg","x":801,"y":87}],"moves":[{"src":"http://localhost:8000/images/9_1.jpg","x":478,"y":325,"move_time":1042.7000000029802},{"src":"http://localhost:8000/images/9_2.jpg","x":640,"y":325,"move_time":657.1999999992549},{"src":"http://localhost:8000/images/9_3.jpg","x":317,"y":325,"move_time":913.6999999992549}],"final_locations":[{"final":{"src":"http://localhost:8000/images/9_3.jpg","x":317,"y":325,"move_time":913.6999999992549}}],"stars_time":[33333.099999997765],"end_time":[36984.300000000745],"rt":3651.2000000029802,"trial_type":"order","trial_index":18,"time_elapsed":36642,"internal_node_id":"0.0-18.0","subject":1688416954147,"condition":"conditionC"},{"rt":983.9000000022352,"stimulus":"<p>How difficult was it to order the pictures?</p>","button_pressed":"2","trial_type":"html-button-response","trial_index":19,"time_elapsed":37626,"internal_node_id":"0.0-19.0","subject":1688416954147,"condition":"conditionC"},{"rt":1250.800000000745,"responses":"{\"Q0\":\"\"}","trial_type":"survey-text","trial_index":20,"time_elapsed":38878,"internal_node_id":"0.0-20.0","subject":1688416954147,"condition":"conditionC"},{"init_locations":[{"src":"http://localhost:8000/images/3_1.jpg","x":317,"y":87},{"src":"http://localhost:8000/images/3_3.jpg","x":478,"y":87},{"src":"http://localhost:8000/images/3_4.jpg","x":640,"y":87},{"src":"http://localhost:8000/images/3_2.jpg","x":801,"y":87}],"moves":[{"src":"http://localhost:8000/images/3_3.jpg","x":478,"y":325,"move_time":1085.7999999970198},{"src":"http://localhost:8000/images/3_1.jpg","x":317,"y":325,"move_time":1153.2000000029802},{"src":"http://localhost:8000/images/3_4.jpg","x":640,"y":325,"move_time":938.0999999977648},{"src":"http://localhost:8000/images/3_2.jpg","x":801,"y":325,"move_time":878.6999999992549},{"src":"http://localhost:8000/images/3_3.jpg","x":640,"y":325,"move_time":3161.900000002235},{"src":"http://localhost:8000/images/3_2.jpg","x":478,"y":325,"move_time":3841.099999997765},{"src":"http://localhost:8000/images/3_4.jpg","x":640,"y":325,"move_time":2299.7000000029802},{"src":"http://localhost:8000/images/3_4.jpg","x":801,"y":325,"move_time":2595.599999997765}],"final_locations":[{"final":{"src":"http://localhost:8000/images/3_4.jpg","x":801,"y":325,"move_time":2595.599999997765}}],"stars_time":[39221.300000000745],"end_time":[56212.199999999255],"rt":16990.89999999851,"trial_type":"order","trial_index":21,"time_elapsed":55869,"internal_node_id":"0.0-21.0","subject":1688416954147,"condition":"conditionC"},{"rt":1851.4000000022352,"stimulus":"<p>How difficult was it to order the pictures?</p>","button_pressed":"2","trial_type":"html-button-response","trial_index":22,"time_elapsed":57722,"internal_node_id":"0.0-22.0","subject":1688416954147,"condition":"conditionC"},{"rt":1191.1000000014901,"responses":"{\"Q0\":\"\"}","trial_type":"survey-text","trial_index":23,"time_elapsed":58914,"internal_node_id":"0.0-23.0","subject":1688416954147,"condition":"conditionC"},{"init_locations":[{"src":"http://localhost:8000/images/8_5.jpg","x":317,"y":87},{"src":"http://localhost:8000/images/8_6.jpg","x":478,"y":87},{"src":"http://localhost:8000/images/8_7.jpg","x":640,"y":87},{"src":"http://localhost:8000/images/8_8.jpg","x":801,"y":87}],"moves":[{"src":"http://localhost:8000/images/8_5.jpg","x":317,"y":325,"move_time":1728.1000000014901},{"src":"http://localhost:8000/images/8_6.jpg","x":478,"y":325,"move_time":591.5999999977648},{"src":"http://localhost:8000/images/8_7.jpg","x":640,"y":325,"move_time":574.9000000022352},{"src":"http://localhost:8000/images/8_8.jpg","x":801,"y":325,"move_time":513.3000000007451}],"final_locations":[{"final":{"src":"http://localhost:8000/images/8_8.jpg","x":801,"y":325,"move_time":513.3000000007451}}],"stars_time":[59257.39999999851],"end_time":[64200.39999999851],"rt":4943,"trial_type":"order","trial_index":24,"time_elapsed":63863,"internal_node_id":"0.0-24.0","subject":1688416954147,"condition":"conditionC"},{"rt":951.3000000007451,"stimulus":"<p>How difficult was it to order the pictures?</p>","button_pressed":"2","trial_type":"html-button-response","trial_index":25,"time_elapsed":64815,"internal_node_id":"0.0-25.0","subject":1688416954147,"condition":"conditionC"},{"rt":903,"responses":"{\"Q0\":\"\"}","trial_type":"survey-text","trial_index":26,"time_elapsed":65719,"internal_node_id":"0.0-26.0","subject":1688416954147,"condition":"conditionC"}]