[{"init_locations":[{"src":"http://127.0.0.1:5501/images/1_1.jpg","x":290,"y":87},{"src":"http://127.0.0.1:5501/images/1_2.jpg","x":451,"y":87},{"src":"http://127.0.0.1:5501/images/1_3.jpg","x":612,"y":87},{"src":"http://127.0.0.1:5501/images/1_4.jpg","x":774,"y":87}],"moves":[{"src":"http://127.0.0.1:5501/images/1_3.jpg","x":612,"y":325,"move_time":1176},{"src":"http://127.0.0.1:5501/images/1_2.jpg","x":451,"y":325,"move_time":1025},{"src":"http://127.0.0.1:5501/images/1_1.jpg","x":290,"y":325,"move_time":766.0999999940395}],"final_locations":[{"final":{"src":"http://127.0.0.1:5501/images/1_1.jpg","x":290,"y":325,"move_time":766.0999999940395}}],"stars_time":[269.90000000596046],"end_time":[5394.60000000149],"rt":5124.69999999553,"trial_type":"order","trial_index":0,"time_elapsed":5126,"internal_node_id":"0.0-0.0","subject":1688280943119,"condition":"conditionA"},{"init_locations":[{"src":"http://127.0.0.1:5501/images/1_5.jpg","x":290,"y":76},{"src":"http://127.0.0.1:5501/images/1_6.jpg","x":451,"y":76},{"src":"http://127.0.0.1:5501/images/1_7.jpg","x":612,"y":76},{"src":"http://127.0.0.1:5501/images/1_8.jpg","x":774,"y":76}],"moves":[],"final_locations":[{}],"stars_time":[5396.70000000298],"end_time":[5617.4000000059605],"rt":220.70000000298023,"trial_type":"order","trial_index":1,"time_elapsed":5348,"internal_node_id":"0.0-1.0","subject":1688280943119,"condition":"conditionA"},{"init_locations":[{"src":"http://127.0.0.1:5501/images/2_1.jpg","x":290,"y":76},{"src":"http://127.0.0.1:5501/images/2_2.jpg","x":451,"y":76},{"src":"http://127.0.0.1:5501/images/2_3.jpg","x":612,"y":76},{"src":"http://127.0.0.1:5501/images/2_4.jpg","x":774,"y":76}],"moves":[],"final_locations":[{}],"stars_time":[5618.5],"end_time":[5841.30000000447],"rt":222.80000000447035,"trial_type":"order","trial_index":2,"time_elapsed":5572,"internal_node_id":"0.0-2.0","subject":1688280943119,"condition":"conditionA"},{"init_locations":[{"src":"http://127.0.0.1:5501/images/2_5.jpg","x":290,"y":76},{"src":"http://127.0.0.1:5501/images/2_6.jpg","x":451,"y":76},{"src":"http://127.0.0.1:5501/images/2_7.jpg","x":612,"y":76},{"src":"http://127.0.0.1:5501/images/2_8.jpg","x":774,"y":76}],"moves":[],"final_locations":[{}],"stars_time":[5842.10000000149],"end_time":[6065.30000000447],"rt":223.20000000298023,"trial_type":"order","trial_index":3,"time_elapsed":5796,"internal_node_id":"0.0-3.0","subject":1688280943119,"condition":"conditionA"},{"init_locations":[{"src":"http://127.0.0.1:5501/images/3_1.jpg","x":290,"y":76},{"src":"http://127.0.0.1:5501/images/3_2.jpg","x":451,"y":76},{"src":"http://127.0.0.1:5501/images/3_3.jpg","x":612,"y":76},{"src":"http://127.0.0.1:5501/images/3_4.jpg","x":774,"y":76}],"moves":[],"final_locations":[{}],"stars_time":[6066.10000000149],"end_time":[6273.70000000298],"rt":207.60000000149012,"trial_type":"order","trial_index":4,"time_elapsed":6005,"internal_node_id":"0.0-4.0","subject":1688280943119,"condition":"conditionA"},{"init_locations":[{"src":"http://127.0.0.1:5501/images/3_5.jpg","x":290,"y":76},{"src":"http://127.0.0.1:5501/images/3_6.jpg","x":451,"y":76},{"src":"http://127.0.0.1:5501/images/3_7.jpg","x":612,"y":76},{"src":"http://127.0.0.1:5501/images/3_8.jpg","x":774,"y":76}],"moves":[],"final_locations":[{}],"stars_time":[6274.80000000447],"end_time":[6501.20000000298],"rt":226.39999999850988,"trial_type":"order","trial_index":5,"time_elapsed":6232,"internal_node_id":"0.0-5.0","subject":1688280943119,"condition":"conditionA"},{"init_locations":[{"src":"http://127.0.0.1:5501/images/4_1.jpg","x":290,"y":76},{"src":"http://127.0.0.1:5501/images/4_2.jpg","x":451,"y":76},{"src":"http://127.0.0.1:5501/images/4_3.jpg","x":612,"y":76},{"src":"http://127.0.0.1:5501/images/4_4.jpg","x":774,"y":76}],"moves":[],"final_locations":[{}],"stars_time":[6502.20000000298],"end_time":[6725.4000000059605],"rt":223.20000000298023,"trial_type":"order","trial_index":6,"time_elapsed":6456,"internal_node_id":"0.0-6.0","subject":1688280943119,"condition":"conditionA"},{"init_locations":[{"src":"http://127.0.0.1:5501/images/4_5.jpg","x":290,"y":76},{"src":"http://127.0.0.1:5501/images/4_6.jpg","x":451,"y":76},{"src":"http://127.0.0.1:5501/images/4_7.jpg","x":612,"y":76},{"src":"http://127.0.0.1:5501/images/4_8.jpg","x":774,"y":76}],"moves":[],"final_locations":[{}],"stars_time":[6726.30000000447],"end_time":[6965.70000000298],"rt":239.39999999850988,"trial_type":"order","trial_index":7,"time_elapsed":6697,"internal_node_id":"0.0-7.0","subject":1688280943119,"condition":"conditionA"},{"init_locations":[{"src":"http://127.0.0.1:5501/images/5_1.jpg","x":290,"y":76},{"src":"http://127.0.0.1:5501/images/5_2.jpg","x":451,"y":76},{"src":"http://127.0.0.1:5501/images/5_3.jpg","x":612,"y":76},{"src":"http://127.0.0.1:5501/images/5_4.jpg","x":774,"y":76}],"moves":[],"final_locations":[{}],"stars_time":[6966.80000000447],"end_time":[7189.20000000298],"rt":222.39999999850988,"trial_type":"order","trial_index":8,"time_elapsed":6920,"internal_node_id":"0.0-8.0","subject":1688280943119,"condition":"conditionA"},{"init_locations":[{"src":"http://127.0.0.1:5501/images/5_5.jpg","x":290,"y":76},{"src":"http://127.0.0.1:5501/images/5_6.jpg","x":451,"y":76},{"src":"http://127.0.0.1:5501/images/5_7.jpg","x":612,"y":76},{"src":"http://127.0.0.1:5501/images/5_8.jpg","x":774,"y":76}],"moves":[],"final_locations":[{}],"stars_time":[7190.10000000149],"end_time":[7429.30000000447],"rt":239.20000000298023,"trial_type":"order","trial_index":9,"time_elapsed":7160,"internal_node_id":"0.0-9.0","subject":1688280943119,"condition":"conditionA"},{"init_locations":[{"src":"http://127.0.0.1:5501/images/6_1.jpg","x":290,"y":76},{"src":"http://127.0.0.1:5501/images/6_2.jpg","x":451,"y":76},{"src":"http://127.0.0.1:5501/images/6_3.jpg","x":612,"y":76},{"src":"http://127.0.0.1:5501/images/6_4.jpg","x":774,"y":76}],"moves":[],"final_locations":[{}],"stars_time":[7430],"end_time":[7669.60000000149],"rt":239.60000000149012,"trial_type":"order","trial_index":10,"time_elapsed":7400,"internal_node_id":"0.0-10.0","subject":1688280943119,"condition":"conditionA"},{"init_locations":[{"src":"http://127.0.0.1:5501/images/6_5.jpg","x":290,"y":76},{"src":"http://127.0.0.1:5501/images/6_6.jpg","x":451,"y":76},{"src":"http://127.0.0.1:5501/images/6_7.jpg","x":612,"y":76},{"src":"http://127.0.0.1:5501/images/6_8.jpg","x":774,"y":76}],"moves":[],"final_locations":[{}],"stars_time":[7670.30000000447],"end_time":[7893.60000000149],"rt":223.29999999701977,"trial_type":"order","trial_index":11,"time_elapsed":7625,"internal_node_id":"0.0-11.0","subject":1688280943119,"condition":"conditionA"},{"init_locations":[{"src":"http://127.0.0.1:5501/images/7_1.jpg","x":290,"y":76},{"src":"http://127.0.0.1:5501/images/7_2.jpg","x":451,"y":76},{"src":"http://127.0.0.1:5501/images/7_3.jpg","x":612,"y":76},{"src":"http://127.0.0.1:5501/images/7_4.jpg","x":774,"y":76}],"moves":[],"final_locations":[{}],"stars_time":[7894.5],"end_time":[8117.60000000149],"rt":223.10000000149012,"trial_type":"order","trial_index":12,"time_elapsed":7848,"internal_node_id":"0.0-12.0","subject":1688280943119,"condition":"conditionA"},{"init_locations":[{"src":"http://127.0.0.1:5501/images/7_5.jpg","x":290,"y":76},{"src":"http://127.0.0.1:5501/images/7_6.jpg","x":451,"y":76},{"src":"http://127.0.0.1:5501/images/7_7.jpg","x":612,"y":76},{"src":"http://127.0.0.1:5501/images/7_8.jpg","x":774,"y":76}],"moves":[],"final_locations":[{}],"stars_time":[8118.4000000059605],"end_time":[8357.20000000298],"rt":238.79999999701977,"trial_type":"order","trial_index":13,"time_elapsed":8088,"internal_node_id":"0.0-13.0","subject":1688280943119,"condition":"conditionA"},{"init_locations":[{"src":"http://127.0.0.1:5501/images/8_1.jpg","x":290,"y":76},{"src":"http://127.0.0.1:5501/images/8_2.jpg","x":451,"y":76},{"src":"http://127.0.0.1:5501/images/8_3.jpg","x":612,"y":76},{"src":"http://127.0.0.1:5501/images/8_4.jpg","x":774,"y":76}],"moves":[],"final_locations":[{}],"stars_time":[8358],"end_time":[8581.30000000447],"rt":223.30000000447035,"trial_type":"order","trial_index":14,"time_elapsed":8312,"internal_node_id":"0.0-14.0","subject":1688280943119,"condition":"conditionA"},{"init_locations":[{"src":"http://127.0.0.1:5501/images/8_5.jpg","x":290,"y":76},{"src":"http://127.0.0.1:5501/images/8_6.jpg","x":451,"y":76},{"src":"http://127.0.0.1:5501/images/8_7.jpg","x":612,"y":76},{"src":"http://127.0.0.1:5501/images/8_8.jpg","x":774,"y":76}],"moves":[],"final_locations":[{}],"stars_time":[8582.20000000298],"end_time":[8805.60000000149],"rt":223.39999999850988,"trial_type":"order","trial_index":15,"time_elapsed":8536,"internal_node_id":"0.0-15.0","subject":1688280943119,"condition":"conditionA"},{"init_locations":[{"src":"http://127.0.0.1:5501/images/9_1.jpg","x":290,"y":76},{"src":"http://127.0.0.1:5501/images/9_2.jpg","x":451,"y":76},{"src":"http://127.0.0.1:5501/images/9_3.jpg","x":612,"y":76},{"src":"http://127.0.0.1:5501/images/9_4.jpg","x":774,"y":76}],"moves":[],"final_locations":[{}],"stars_time":[8806.10000000149],"end_time":[9029.30000000447],"rt":223.20000000298023,"trial_type":"order","trial_index":16,"time_elapsed":8760,"internal_node_id":"0.0-16.0","subject":1688280943119,"condition":"conditionA"},{"init_locations":[{"src":"http://127.0.0.1:5501/images/9_5.jpg","x":290,"y":76},{"src":"http://127.0.0.1:5501/images/9_6.jpg","x":451,"y":76},{"src":"http://127.0.0.1:5501/images/9_7.jpg","x":612,"y":76},{"src":"http://127.0.0.1:5501/images/9_8.jpg","x":774,"y":76}],"moves":[],"final_locations":[{}],"stars_time":[9030.10000000149],"end_time":[9253.60000000149],"rt":223.5,"trial_type":"order","trial_index":17,"time_elapsed":8985,"internal_node_id":"0.0-17.0","subject":1688280943119,"condition":"conditionA"},{"rt":1250.5,"button_pressed":"2","trial_type":"html-button-response","trial_index":18,"time_elapsed":10237,"internal_node_id":"0.0-18.0","subject":1688280943119,"condition":"conditionA"}]