"rt","responses","ttype","trial_type","trial_index","time_elapsed","internal_node_id","age","warning","missed_checkup","PID","success","start_time","view_history","repeat_instructions","key_press","response","stimulus_index","path","index","left_chosen","chosen_stimulus","unchosen_stimulus","chosen_category","unchosen_category","no_response","pair_id","practice","scramble_screen_time","scramble_instructed_side","stim_type","iti","block","run","left_stimulus","right_stimulus","left_category","right_category","left_path","right_path","left_rating","right_rating","onset","duration","response_ends_trial","trial_duration","scramble_acc"
"4157","{""Q0"":""23"",""Q1"":""22""}","get_id","survey-text","0","4159","0.0-0.0-0.0-0.0","22","0","0","23","","","","","","","","","","","","","","","","","","","","","","","","","","","","","","","","","","","",""
"","","full_screen","fullscreen","1","6023","0.0-0.0-1.0","","0","0","23","true","d03212023hr1416","","","","","","","","","","","","","","","","","","","","","","","","","","","","","","","","","",""
"2272","","ratings_instructions","instructions","2","8296","0.0-1.0-0.0-0.0","","0","0","23","","","[{""page_index"":0,""viewing_time"":1444},{""page_index"":1,""viewing_time"":827}]","","","","","","","","","","","","","","","","","","","","","","","","","","","","","","","","",""
"2463","{""Q0"":""True"",""Q1"":""Mouse""}","rating_comprehension_check","survey-multi-choice","3","10763","0.0-1.0-0.0-1.0","","0","0","23","","","","0","","","","","","","","","","","","","","","","","","","","","","","","","","","","","","","",""
"1268","","","html-keyboard-response","4","12033","0.0-1.0-1.0","","0","0","23","","","","","83","","","","","","","","","","","","","","","","","","","","","","","","","","","","","","",""
"1147","","rating","html-slider-response","5","13182","0.0-1.0-2.0","","0","0","23","","","","","","50","18","Stimuli/Experimental_stims/outdoor_scenes/meng-ji-8BH_M-53CyA-unsplash.jpg","0","","","","","","","","","","","","","","","","","","","","","","","","","","",""
"163","","rating","html-slider-response","6","13348","0.0-1.0-3.0","","0","0","23","","","","","","50","44","Stimuli/Experimental_stims/body_parts/pure-julia-9lVaya31sMk-unsplash.jpg","1","","","","","","","","","","","","","","","","","","","","","","","","","","",""
"178","","rating","html-slider-response","7","13527","0.0-1.0-4.0","","0","0","23","","","","","","50","51","Stimuli/Experimental_stims/objects/art-lasovsky-8XddFc6NkBY-unsplash.jpg","2","","","","","","","","","","","","","","","","","","","","","","","","","","",""
"255","","rating","html-slider-response","8","13784","0.0-1.0-5.0","","0","0","23","","","","","","50","42","Stimuli/Experimental_stims/body_parts/lucrezia-carnelos-kn6QrWtnAtY-unsplash.jpg","3","","","","","","","","","","","","","","","","","","","","","","","","","","",""
"165","","rating","html-slider-response","9","13952","0.0-1.0-6.0","","0","0","23","","","","","","50","41","Stimuli/Experimental_stims/body_parts/lucaxx-freire-CacZwMexYdk-unsplash.jpg","4","","","","","","","","","","","","","","","","","","","","","","","","","","",""
"164","","rating","html-slider-response","10","14118","0.0-1.0-7.0","","0","0","23","","","","","","50","19","Stimuli/Experimental_stims/outdoor_scenes/petr-vysohlid-9fqwGqGLUxc-unsplash.jpg","5","","","","","","","","","","","","","","","","","","","","","","","","","","",""
"167","","rating","html-slider-response","11","14286","0.0-1.0-8.0","","0","0","23","","","","","","50","20","Stimuli/Experimental_stims/outdoor_scenes/samsommer-vddccTqwal8-unsplash.jpg","6","","","","","","","","","","","","","","","","","","","","","","","","","","",""
"165","","rating","html-slider-response","12","14454","0.0-1.0-9.0","","0","0","23","","","","","","50","29","Stimuli/Experimental_stims/faces/freddy-kearney-o-ioeoATbIM-unsplash.jpg","7","","","","","","","","","","","","","","","","","","","","","","","","","","",""
"165","","rating","html-slider-response","13","14622","0.0-1.0-10.0","","0","0","23","","","","","","50","26","Stimuli/Experimental_stims/faces/art-hauntington-jzY0KRJopEI-unsplash.jpg","8","","","","","","","","","","","","","","","","","","","","","","","","","","",""
"164","","rating","html-slider-response","14","14788","0.0-1.0-11.0","","0","0","23","","","","","","50","30","Stimuli/Experimental_stims/faces/good-faces-xmSWVeGEnJw-unsplash.jpg","9","","","","","","","","","","","","","","","","","","","","","","","","","","",""
"175","","rating","html-slider-response","15","14966","0.0-1.0-12.0","","0","0","23","","","","","","50","48","Stimuli/Experimental_stims/objects/alexander-andrews-JYGnB9gTCls-unsplash.jpg","10","","","","","","","","","","","","","","","","","","","","","","","","","","",""
"165","","rating","html-slider-response","16","15134","0.0-1.0-13.0","","0","0","23","","","","","","50","14","Stimuli/Experimental_stims/outdoor_scenes/bruno-van-der-kraan-qez8mNJ3ilU-unsplash.jpg","11","","","","","","","","","","","","","","","","","","","","","","","","","","",""
"176","","rating","html-slider-response","17","15312","0.0-1.0-14.0","","0","0","23","","","","","","50","24","Stimuli/Experimental_stims/faces/abstral-official-cyOKLSgkgCE-unsplash.jpg","12","","","","","","","","","","","","","","","","","","","","","","","","","","",""
"166","","rating","html-slider-response","18","15480","0.0-1.0-15.0","","0","0","23","","","","","","50","16","Stimuli/Experimental_stims/outdoor_scenes/jarrett-kow-1ZOyYPOBn7I-unsplash.jpg","13","","","","","","","","","","","","","","","","","","","","","","","","","","",""
"188","","rating","html-slider-response","19","15670","0.0-1.0-16.0","","0","0","23","","","","","","50","40","Stimuli/Experimental_stims/body_parts/klara-kulikova-TcUfF24fUMY-unsplash.jpg","14","","","","","","","","","","","","","","","","","","","","","","","","","","",""
"176","","rating","html-slider-response","20","15848","0.0-1.0-17.0","","0","0","23","","","","","","50","43","Stimuli/Experimental_stims/body_parts/megan-menegay-UojxG_BJxnI-unsplash.jpg","15","","","","","","","","","","","","","","","","","","","","","","","","","","",""
"176","","rating","html-slider-response","21","16026","0.0-1.0-18.0","","0","0","23","","","","","","50","45","Stimuli/Experimental_stims/body_parts/sincerely-media-7TBFwUQA6Xk-unsplash.jpg","16","","","","","","","","","","","","","","","","","","","","","","","","","","",""
"162","","rating","html-slider-response","22","16191","0.0-1.0-19.0","","0","0","23","","","","","","50","54","Stimuli/Experimental_stims/objects/jess-bailey-nOeVi8DsN8U-unsplash.jpg","17","","","","","","","","","","","","","","","","","","","","","","","","","","",""
"169","","rating","html-slider-response","23","16362","0.0-1.0-20.0","","0","0","23","","","","","","50","17","Stimuli/Experimental_stims/outdoor_scenes/jeff-king-bJHWJeiHfHc-unsplash.jpg","18","","","","","","","","","","","","","","","","","","","","","","","","","","",""
"175","","rating","html-slider-response","24","16538","0.0-1.0-21.0","","0","0","23","","","","","","50","36","Stimuli/Experimental_stims/body_parts/callum-skelton-3KLMq7y46nA-unsplash.jpg","19","","","","","","","","","","","","","","","","","","","","","","","","","","",""
"187","","rating","html-slider-response","25","16727","0.0-1.0-22.0","","0","0","23","","","","","","50","15","Stimuli/Experimental_stims/outdoor_scenes/henry-be-NLF6hTe4PAg-unsplash.jpg","20","","","","","","","","","","","","","","","","","","","","","","","","","","",""
"189","","rating","html-slider-response","26","16918","0.0-1.0-23.0","","0","0","23","","","","","","50","22","Stimuli/Experimental_stims/outdoor_scenes/stephen-leonardi-gyIRjKPXupE-unsplash.jpg","21","","","","","","","","","","","","","","","","","","","","","","","","","","",""
"178","","rating","html-slider-response","27","17098","0.0-1.0-24.0","","0","0","23","","","","","","50","13","Stimuli/Experimental_stims/outdoor_scenes/ashim-d-silva-S2Q5mdOrrVc-unsplash.jpg","22","","","","","","","","","","","","","","","","","","","","","","","","","","",""
"175","","rating","html-slider-response","28","17276","0.0-1.0-25.0","","0","0","23","","","","","","50","38","Stimuli/Experimental_stims/body_parts/engin-akyurt-x_3gyC42btc-unsplash.jpg","23","","","","","","","","","","","","","","","","","","","","","","","","","","",""
"175","","rating","html-slider-response","29","17454","0.0-1.0-26.0","","0","0","23","","","","","","50","39","Stimuli/Experimental_stims/body_parts/jonathan-borba-hTwH8QFkPMs-unsplash.jpg","24","","","","","","","","","","","","","","","","","","","","","","","","","","",""
"175","","rating","html-slider-response","30","17630","0.0-1.0-27.0","","0","0","23","","","","","","50","28","Stimuli/Experimental_stims/faces/erik-lucatero-d2MSDujJl2g-unsplash.jpg","25","","","","","","","","","","","","","","","","","","","","","","","","","","",""
"177","","rating","html-slider-response","31","17808","0.0-1.0-28.0","","0","0","23","","","","","","50","55","Stimuli/Experimental_stims/objects/jiangxulei1990-eIzzzwtkBjU-unsplash.jpg","26","","","","","","","","","","","","","","","","","","","","","","","","","","",""
"178","","rating","html-slider-response","32","17988","0.0-1.0-29.0","","0","0","23","","","","","","50","50","Stimuli/Experimental_stims/objects/andrew-petrov-TVJqDat4MAw-unsplash.jpg","27","","","","","","","","","","","","","","","","","","","","","","","","","","",""
"167","","rating","html-slider-response","33","18156","0.0-1.0-30.0","","0","0","23","","","","","","50","58","Stimuli/Experimental_stims/objects/mockup-graphics-PNsj6RiHAF4-unsplash.jpg","28","","","","","","","","","","","","","","","","","","","","","","","","","","",""
"175","","rating","html-slider-response","34","18334","0.0-1.0-31.0","","0","0","23","","","","","","50","34","Stimuli/Experimental_stims/faces/olena-sergienko-0TSd6uCKTKc-unsplash.jpg","29","","","","","","","","","","","","","","","","","","","","","","","","","","",""
"178","","rating","html-slider-response","35","18514","0.0-1.0-32.0","","0","0","23","","","","","","50","33","Stimuli/Experimental_stims/faces/leilani-angel-K84vnnzxmTQ-unsplash.jpg","30","","","","","","","","","","","","","","","","","","","","","","","","","","",""
"177","","rating","html-slider-response","36","18692","0.0-1.0-33.0","","0","0","23","","","","","","50","57","Stimuli/Experimental_stims/objects/kuiye-chen-NuOGFo4PudE-unsplash.jpg","31","","","","","","","","","","","","","","","","","","","","","","","","","","",""
"176","","rating","html-slider-response","37","18870","0.0-1.0-34.0","","0","0","23","","","","","","50","31","Stimuli/Experimental_stims/faces/jessica-radanavong-mrYkTuAesKE-unsplash.jpg","32","","","","","","","","","","","","","","","","","","","","","","","","","","",""
"177","","rating","html-slider-response","38","19050","0.0-1.0-35.0","","0","0","23","","","","","","50","25","Stimuli/Experimental_stims/faces/aiony-haust-jmATI5Q_YgY-unsplash.jpg","33","","","","","","","","","","","","","","","","","","","","","","","","","","",""
"164","","rating","html-slider-response","39","19216","0.0-1.0-36.0","","0","0","23","","","","","","50","59","Stimuli/Experimental_stims/objects/ronaldo-arthur-vidal-Cdz_lvnl37k-unsplash.jpg","34","","","","","","","","","","","","","","","","","","","","","","","","","","",""
"177","","rating","html-slider-response","40","19396","0.0-1.0-37.0","","0","0","23","","","","","","50","21","Stimuli/Experimental_stims/outdoor_scenes/sergey-pesterev-y-b_FOmJXdg-unsplash.jpg","35","","","","","","","","","","","","","","","","","","","","","","","","","","",""
"163","","rating","html-slider-response","41","19562","0.0-1.0-38.0","","0","0","23","","","","","","50","23","Stimuli/Experimental_stims/outdoor_scenes/yuriy-bogdanov-W51VK3Obcj0-unsplash.jpg","36","","","","","","","","","","","","","","","","","","","","","","","","","","",""
"176","","rating","html-slider-response","42","19740","0.0-1.0-39.0","","0","0","23","","","","","","50","27","Stimuli/Experimental_stims/faces/daniel-rigdon-dXmXKPP2L4E-unsplash.jpg","37","","","","","","","","","","","","","","","","","","","","","","","","","","",""
"177","","rating","html-slider-response","43","19920","0.0-1.0-40.0","","0","0","23","","","","","","50","47","Stimuli/Experimental_stims/body_parts/tucker-good-36skLT5jZcc-unsplash.jpg","38","","","","","","","","","","","","","","","","","","","","","","","","","","",""
"175","","rating","html-slider-response","44","20098","0.0-1.0-41.0","","0","0","23","","","","","","50","37","Stimuli/Experimental_stims/body_parts/engin-akyurt-Q2rfH3GW39c-unsplash.jpg","39","","","","","","","","","","","","","","","","","","","","","","","","","","",""
"166","","rating","html-slider-response","45","20266","0.0-1.0-42.0","","0","0","23","","","","","","50","32","Stimuli/Experimental_stims/faces/justin-chen-J7Cf1Gch49E-unsplash.jpg","40","","","","","","","","","","","","","","","","","","","","","","","","","","",""
"176","","rating","html-slider-response","46","20444","0.0-1.0-43.0","","0","0","23","","","","","","50","12","Stimuli/Experimental_stims/outdoor_scenes/aleksandra-boguslawska-MS7KD9Ti7FQ-unsplash.jpg","41","","","","","","","","","","","","","","","","","","","","","","","","","","",""
"163","","rating","html-slider-response","47","20610","0.0-1.0-44.0","","0","0","23","","","","","","50","53","Stimuli/Experimental_stims/objects/insung-yoon-w2JtIQQXoRU-unsplash.jpg","42","","","","","","","","","","","","","","","","","","","","","","","","","","",""
"166","","rating","html-slider-response","48","20778","0.0-1.0-45.0","","0","0","23","","","","","","50","49","Stimuli/Experimental_stims/objects/alexander-andrews-VLGWE_SumrA-unsplash.jpg","43","","","","","","","","","","","","","","","","","","","","","","","","","","",""
"187","","rating","html-slider-response","49","20968","0.0-1.0-46.0","","0","0","23","","","","","","50","46","Stimuli/Experimental_stims/body_parts/sincerely-media-VN6DbKajo5s-unsplash.jpg","44","","","","","","","","","","","","","","","","","","","","","","","","","","",""
"176","","rating","html-slider-response","50","21146","0.0-1.0-47.0","","0","0","23","","","","","","50","52","Stimuli/Experimental_stims/objects/fabian-blank-pElSkGRA2NU-unsplash.jpg","45","","","","","","","","","","","","","","","","","","","","","","","","","","",""
"176","","rating","html-slider-response","51","21324","0.0-1.0-48.0","","0","0","23","","","","","","50","56","Stimuli/Experimental_stims/objects/jonathan-greenaway-Y4hGgeiFn3s-unsplash.jpg","46","","","","","","","","","","","","","","","","","","","","","","","","","","",""
"178","","rating","html-slider-response","52","21504","0.0-1.0-49.0","","0","0","23","","","","","","50","35","Stimuli/Experimental_stims/faces/rikonavt-HQjfrvdTfak-unsplash.jpg","47","","","","","","","","","","","","","","","","","","","","","","","","","","",""
"5886","","deliberation_instructions","instructions","53","27426","0.0-2.0-0.0-0.0","","0","0","23","","","[{""page_index"":0,""viewing_time"":1826},{""page_index"":1,""viewing_time"":2140},{""page_index"":2,""viewing_time"":592},{""page_index"":3,""viewing_time"":692},{""page_index"":4,""viewing_time"":636}]","","","","","","","","","","","","","","","","","","","","","","","","","","","","","","","","",""
"5239","{""Q0"":""True"",""Q1"":""True"",""Q2"":""Consider carefully and take your time (up to 10 seconds)"",""Q3"":""True"",""Q4"":""D""}","deliberation_comprehension_check","survey-multi-choice","54","32669","0.0-2.0-0.0-1.0","","0","0","23","","","","0","","","","","","","","","","","","","","","","","","","","","","","","","","","","","","","",""
"1979","","","html-keyboard-response","55","34650","0.0-2.0-1.0","","0","0","23","","","","","83","","","","","","","","","","","","","","","","","","","","","","","","","","","","","","",""
"1188","","deliberation","html-keyboard-response","56","35842","0.0-2.0-2.0-0.0","","0","0","23","","","","","50","","","","0","1","NA","NA","NaN","NaN","0","prac1","1","NaN","NaN","original","1500","0","0","NA","NA","NaN","NaN","Stimuli/Practice_stims/Deliberation/anthony-delanoix-Q0-fOL2nqZc-unsplash.jpg","Stimuli/Practice_stims/Deliberation/becca-tapert-sY5RjMB1KkE-unsplash.jpg","NA","NA","0","1.188","","",""
"null","","deliberation_confirmation","html-keyboard-response","57","37667","0.0-2.0-2.0-2.0-0.0","","0","0","23","","","","","null","","","","0","","","","","","","","","","","","","0","","","","","","","","","","1.188","1.812","","",""
"null","","iti","html-keyboard-response","58","39178","0.0-2.0-2.0-4.0","","0","0","23","","","","","null","","","","0","","","","","","","","","","","","","0","","","","","","","","","","3","1.5","","",""
"334","","deliberation","html-keyboard-response","59","39515","0.0-2.0-4.0-0.0","","0","0","23","","","","","50","","","","1","","","","","","","prac2","1","2559","left","scramble","2500","0","0","NA","NA","NaN","NaN","Stimuli/Practice_stims/Deliberation/scramble/scrambled_clay-banks-1KPfcPdbWFM-unsplash.jpg","Stimuli/Practice_stims/Deliberation/scramble/scrambled_melissa-keizer-sV4Pd8wq5_o-unsplash.jpg","NA","NA","4.5","2559","false","2559",""
"651","","scramble_instruction","html-keyboard-response","60","40167","0.0-2.0-4.0-1.0-0.0","","0","0","23","","","","","50","","","","1","1","NA","NA","NaN","NaN","0","","","","","","","0","","","","","","","","","","2563.5","1000","","","1"
"null","","deliberation_confirmation","html-keyboard-response","61","40169","0.0-2.0-4.0-2.0-0.0","","0","0","23","","","","","null","","","","1","","","","","","","","","","","","","0","","","","","","","","","","3563.5","-0.21","","",""
"null","","iti","html-keyboard-response","62","42679","0.0-2.0-4.0-4.0","","0","0","23","","","","","null","","","","1","","","","","","","","","","","","","0","","","","","","","","","","3563.29","2.5","","",""
"417","","deliberation","html-keyboard-response","63","43099","0.0-2.0-6.0-0.0","","0","0","23","","","","","50","","","","2","","","","","","","prac3","1","1450","right","scramble","3000","0","0","NA","NA","NaN","NaN","Stimuli/Practice_stims/Deliberation/scramble/scrambled_anthony-delanoix-Q0-fOL2nqZc-unsplash.jpg","Stimuli/Practice_stims/Deliberation/scramble/scrambled_becca-tapert-sY5RjMB1KkE-unsplash.jpg","NA","NA","3565.79","1450","false","1450",""
"406","","scramble_instruction","html-keyboard-response","64","43506","0.0-2.0-6.0-1.0-0.0","","0","0","23","","","","","50","","","","2","1","NA","NA","NaN","NaN","0","","","","","","","0","","","","","","","","","","5015.79","1000","","","0"
"null","","deliberation_confirmation","html-keyboard-response","65","44660","0.0-2.0-6.0-2.0-0.0","","0","0","23","","","","","null","","","","2","","","","","","","","","","","","","0","","","","","","","","","","6015.79","1.144","","",""
"null","","iti","html-keyboard-response","66","47665","0.0-2.0-6.0-4.0","","0","0","23","","","","","null","","","","2","","","","","","","","","","","","","0","","","","","","","","","","6016.934","3","","",""
"455","","deliberation","html-keyboard-response","67","48122","0.0-2.0-8.0-0.0","","0","0","23","","","","","50","","","","3","1","NA","NA","NaN","NaN","0","prac4","1","NaN","NaN","original","2000","0","0","NA","NA","NaN","NaN","Stimuli/Practice_stims/Deliberation/clay-banks-1KPfcPdbWFM-unsplash.jpg","Stimuli/Practice_stims/Deliberation/melissa-keizer-sV4Pd8wq5_o-unsplash.jpg","NA","NA","6019.934","0.455","","",""
"null","","deliberation_confirmation","html-keyboard-response","68","50671","0.0-2.0-8.0-2.0-0.0","","0","0","23","","","","","null","","","","3","","","","","","","","","","","","","0","","","","","","","","","","6020.389","2.545","","",""
"null","","iti","html-keyboard-response","69","52682","0.0-2.0-8.0-4.0","","0","0","23","","","","","null","","","","3","","","","","","","","","","","","","0","","","","","","","","","","6022.934","2","","",""
"4159","","deliberation_practice_over","html-keyboard-response","70","56843","0.0-2.0-8.0-5.0-0.0","","0","0","23","","","","","83","","","","3","","","","","","","","","","","","","","","","","","","","","","","","","","",""
"1239","","start_run","html-keyboard-response","71","58082","0.0-2.0-8.0-5.0-1.0","","0","0","23","","","","","84","","","","","","","","","","","","","","","","","","","","","","","","","","","","","","",""
"493","","deliberation","html-keyboard-response","72","58579","0.0-2.0-10.0-0.0","","0","0","23","","","","","50","","","","4","","","","","","","B","0","1881","left","scramble","1000","1","1","22","24","outdoor_scenes","faces","Stimuli/Experimental_stims/scramble/outdoor_scenes/scrambled_stephen-leonardi-gyIRjKPXupE-unsplash.jpg","Stimuli/Experimental_stims/scramble/faces/scrambled_abstral-official-cyOKLSgkgCE-unsplash.jpg","NA","NA","0","1881","false","1881",""
"646","","scramble_instruction","html-keyboard-response","73","59226","0.0-2.0-10.0-1.0-0.0","","0","0","23","","","","","50","","","","4","1","22","24","outdoor_scenes","faces","0","","","","","","","1","","","","","","","","","","1881","1000","","","1"
"null","","deliberation_confirmation","html-keyboard-response","74","59706","0.0-2.0-10.0-2.0-0.0","","0","0","23","","","","","null","","","","4","","","","","","","","","","","","","1","","","","","","","","","","2881","0.473","","",""
"null","","iti","html-keyboard-response","75","60711","0.0-2.0-10.0-4.0","","0","0","23","","","","","null","","","","4","","","","","","","","","","","","","1","","","","","","","","","","2881.473","1","","",""
"265","","deliberation","html-keyboard-response","76","60979","0.0-2.0-12.0-0.0","","0","0","23","","","","","50","","","","5","","","","","","","F","0","1926","right","scramble","2000","1","1","29","45","faces","body_parts","Stimuli/Experimental_stims/scramble/faces/scrambled_freddy-kearney-o-ioeoATbIM-unsplash.jpg","Stimuli/Experimental_stims/scramble/body_parts/scrambled_sincerely-media-7TBFwUQA6Xk-unsplash.jpg","NA","NA","2882.473","1926","false","1926",""
"302","","scramble_instruction","html-keyboard-response","77","61283","0.0-2.0-12.0-1.0-0.0","","0","0","23","","","","","50","","","","5","1","29","45","faces","body_parts","0","","","","","","","1","","","","","","","","","","4808.473","1000","","","0"
"null","","deliberation_confirmation","html-keyboard-response","78","62063","0.0-2.0-12.0-2.0-0.0","","0","0","23","","","","","null","","","","5","","","","","","","","","","","","","1","","","","","","","","","","5808.473","0.772","","",""
"null","","iti","html-keyboard-response","79","64071","0.0-2.0-12.0-4.0","","0","0","23","","","","","null","","","","5","","","","","","","","","","","","","1","","","","","","","","","","5809.245","2","","",""
"217","","deliberation","html-keyboard-response","80","64291","0.0-2.0-14.0-0.0","","0","0","23","","","","","50","","","","6","1","44","25","body_parts","faces","0","L","0","NaN","NaN","original","1500","1","1","44","25","body_parts","faces","Stimuli/Experimental_stims/body_parts/pure-julia-9lVaya31sMk-unsplash.jpg","Stimuli/Experimental_stims/faces/aiony-haust-jmATI5Q_YgY-unsplash.jpg","50","50","5811.245","0.217","","",""
"null","","deliberation_confirmation","html-keyboard-response","81","67084","0.0-2.0-14.0-2.0-0.0","","0","0","23","","","","","null","","","","6","","","","","","","","","","","","","1","","","","","","","","","","5811.4619999999995","2.783","","",""
"null","","iti","html-keyboard-response","82","68596","0.0-2.0-14.0-4.0","","0","0","23","","","","","null","","","","6","","","","","","","","","","","","","1","","","","","","","","","","5814.245","1.5","","",""
"436","","deliberation","html-keyboard-response","83","69036","0.0-2.0-16.0-0.0","","0","0","23","","","","","50","","","","7","1","56","37","objects","body_parts","0","E","0","NaN","NaN","original","1000","1","1","56","37","objects","body_parts","Stimuli/Experimental_stims/objects/jonathan-greenaway-Y4hGgeiFn3s-unsplash.jpg","Stimuli/Experimental_stims/body_parts/engin-akyurt-Q2rfH3GW39c-unsplash.jpg","50","50","5815.745","0.436","","",""
"null","","deliberation_confirmation","html-keyboard-response","84","71609","0.0-2.0-16.0-2.0-0.0","","0","0","23","","","","","null","","","","7","","","","","","","","","","","","","1","","","","","","","","","","5816.181","2.564","","",""
"null","","iti","html-keyboard-response","85","72617","0.0-2.0-16.0-4.0","","0","0","23","","","","","null","","","","7","","","","","","","","","","","","","1","","","","","","","","","","5818.745","1","","",""
"639","","deliberation","html-keyboard-response","86","73259","0.0-2.0-18.0-0.0","","0","0","23","","","","","50","","","","8","1","22","24","outdoor_scenes","faces","0","B","0","NaN","NaN","original","1000","1","1","22","24","outdoor_scenes","faces","Stimuli/Experimental_stims/outdoor_scenes/stephen-leonardi-gyIRjKPXupE-unsplash.jpg","Stimuli/Experimental_stims/faces/abstral-official-cyOKLSgkgCE-unsplash.jpg","50","50","5819.745","0.639","","",""
"null","","deliberation_confirmation","html-keyboard-response","87","75623","0.0-2.0-18.0-2.0-0.0","","0","0","23","","","","","null","","","","8","","","","","","","","","","","","","1","","","","","","","","","","5820.384","2.361","","",""
"null","","iti","html-keyboard-response","88","76636","0.0-2.0-18.0-4.0","","0","0","23","","","","","null","","","","8","","","","","","","","","","","","","1","","","","","","","","","","5822.745","1","","",""
"739","","deliberation","html-keyboard-response","89","77379","0.0-2.0-20.0-0.0","","0","0","23","","","","","50","","","","9","","","","","","","C","0","996","left","scramble","3000","1","1","15","41","outdoor_scenes","body_parts","Stimuli/Experimental_stims/scramble/outdoor_scenes/scrambled_henry-be-NLF6hTe4PAg-unsplash.jpg","Stimuli/Experimental_stims/scramble/body_parts/scrambled_lucaxx-freire-CacZwMexYdk-unsplash.jpg","NA","NA","5823.745","996","false","996",""
"519","","scramble_instruction","html-keyboard-response","90","77899","0.0-2.0-20.0-1.0-0.0","","0","0","23","","","","","50","","","","9","1","15","41","outdoor_scenes","body_parts","0","","","","","","","1","","","","","","","","","","6819.745","1000","","","1"
"null","","deliberation_confirmation","html-keyboard-response","91","79394","0.0-2.0-20.0-2.0-0.0","","0","0","23","","","","","null","","","","9","","","","","","","","","","","","","1","","","","","","","","","","7819.745","1.485","","",""
"null","","iti","html-keyboard-response","92","82404","0.0-2.0-20.0-4.0","","0","0","23","","","","","null","","","","9","","","","","","","","","","","","","1","","","","","","","","","","7821.23","3","","",""
"747","","deliberation","html-keyboard-response","93","83156","0.0-2.0-22.0-0.0","","0","0","23","","","","","50","","","","10","","","","","","","D","0","1815","left","scramble","1000","1","1","57","30","objects","faces","Stimuli/Experimental_stims/scramble/objects/scrambled_kuiye-chen-NuOGFo4PudE-unsplash.jpg","Stimuli/Experimental_stims/scramble/faces/scrambled_good-faces-xmSWVeGEnJw-unsplash.jpg","NA","NA","7824.23","1815","false","1815",""
"606","","scramble_instruction","html-keyboard-response","94","83764","0.0-2.0-22.0-1.0-0.0","","0","0","23","","","","","50","","","","10","1","57","30","objects","faces","0","","","","","","","1","","","","","","","","","","9639.23","1000","","","1"
"null","","deliberation_confirmation","html-keyboard-response","95","84353","0.0-2.0-22.0-2.0-0.0","","0","0","23","","","","","null","","","","10","","","","","","","","","","","","","1","","","","","","","","","","10639.23","0.579","","",""
"null","","iti","html-keyboard-response","96","85365","0.0-2.0-22.0-4.0","","0","0","23","","","","","null","","","","10","","","","","","","","","","","","","1","","","","","","","","","","10639.809","1","","",""
"676","","deliberation","html-keyboard-response","97","86044","0.0-2.0-24.0-0.0","","0","0","23","","","","","50","","","","11","1","15","41","outdoor_scenes","body_parts","0","C","0","NaN","NaN","original","3500","1","1","15","41","outdoor_scenes","body_parts","Stimuli/Experimental_stims/outdoor_scenes/henry-be-NLF6hTe4PAg-unsplash.jpg","Stimuli/Experimental_stims/body_parts/lucaxx-freire-CacZwMexYdk-unsplash.jpg","50","50","10640.809","0.676","","",""
"null","","deliberation_confirmation","html-keyboard-response","98","88375","0.0-2.0-24.0-2.0-0.0","","0","0","23","","","","","null","","","","11","","","","","","","","","","","","","1","","","","","","","","","","10641.484999999999","2.324","","",""
"null","","iti","html-keyboard-response","99","91881","0.0-2.0-24.0-4.0","","0","0","23","","","","","null","","","","11","","","","","","","","","","","","","1","","","","","","","","","","10643.809","3.5","","",""
"855","","deliberation","html-keyboard-response","100","92738","0.0-2.0-26.0-0.0","","0","0","23","","","","","50","","","","12","1","29","45","faces","body_parts","0","F","0","NaN","NaN","original","1000","1","1","29","45","faces","body_parts","Stimuli/Experimental_stims/faces/freddy-kearney-o-ioeoATbIM-unsplash.jpg","Stimuli/Experimental_stims/body_parts/sincerely-media-7TBFwUQA6Xk-unsplash.jpg","50","50","10647.309","0.855","","",""
"null","","deliberation_confirmation","html-keyboard-response","101","94891","0.0-2.0-26.0-2.0-0.0","","0","0","23","","","","","null","","","","12","","","","","","","","","","","","","1","","","","","","","","","","10648.163999999999","2.145","","",""
"null","","iti","html-keyboard-response","102","95900","0.0-2.0-26.0-4.0","","0","0","23","","","","","null","","","","12","","","","","","","","","","","","","1","","","","","","","","","","10650.309","1","","",""
"820","","deliberation","html-keyboard-response","103","96722","0.0-2.0-28.0-0.0","","0","0","23","","","","","50","","","","13","","","","","","","L","0","1302","right","scramble","1000","1","1","44","25","body_parts","faces","Stimuli/Experimental_stims/scramble/body_parts/scrambled_pure-julia-9lVaya31sMk-unsplash.jpg","Stimuli/Experimental_stims/scramble/faces/scrambled_aiony-haust-jmATI5Q_YgY-unsplash.jpg","NA","NA","10651.309","1302","false","1302",""
"392","","scramble_instruction","html-keyboard-response","104","97116","0.0-2.0-28.0-1.0-0.0","","0","0","23","","","","","50","","","","13","1","44","25","body_parts","faces","0","","","","","","","1","","","","","","","","","","11953.309","1000","","","0"
"null","","deliberation_confirmation","html-keyboard-response","105","98424","0.0-2.0-28.0-2.0-0.0","","0","0","23","","","","","null","","","","13","","","","","","","","","","","","","1","","","","","","","","","","12953.309","1.306","","",""
"null","","iti","html-keyboard-response","106","99436","0.0-2.0-28.0-4.0","","0","0","23","","","","","null","","","","13","","","","","","","","","","","","","1","","","","","","","","","","12954.615","1","","",""
"586","","deliberation","html-keyboard-response","107","100025","0.0-2.0-30.0-0.0","","0","0","23","","","","","50","","","","14","1","21","49","outdoor_scenes","objects","0","A","0","NaN","NaN","original","2000","1","1","21","49","outdoor_scenes","objects","Stimuli/Experimental_stims/outdoor_scenes/sergey-pesterev-y-b_FOmJXdg-unsplash.jpg","Stimuli/Experimental_stims/objects/alexander-andrews-VLGWE_SumrA-unsplash.jpg","50","50","12955.615","0.586","","",""
"null","","deliberation_confirmation","html-keyboard-response","108","102451","0.0-2.0-30.0-2.0-0.0","","0","0","23","","","","","null","","","","14","","","","","","","","","","","","","1","","","","","","","","","","12956.201","2.414","","",""
"null","","iti","html-keyboard-response","109","104461","0.0-2.0-30.0-4.0","","0","0","23","","","","","null","","","","14","","","","","","","","","","","","","1","","","","","","","","","","12958.615","2","","",""
"700","","deliberation","html-keyboard-response","110","105164","0.0-2.0-32.0-0.0","","0","0","23","","","","","50","","","","15","","","","","","","K","0","1615","right","scramble","3500","1","1","46","52","body_parts","objects","Stimuli/Experimental_stims/scramble/body_parts/scrambled_sincerely-media-VN6DbKajo5s-unsplash.jpg","Stimuli/Experimental_stims/scramble/objects/scrambled_fabian-blank-pElSkGRA2NU-unsplash.jpg","NA","NA","12960.615","1615","false","1615",""
"366","","scramble_instruction","html-keyboard-response","111","105532","0.0-2.0-32.0-1.0-0.0","","0","0","23","","","","","50","","","","15","1","46","52","body_parts","objects","0","","","","","","","1","","","","","","","","","","14575.615","1000","","","0"
"null","","deliberation_confirmation","html-keyboard-response","112","106564","0.0-2.0-32.0-2.0-0.0","","0","0","23","","","","","null","","","","15","","","","","","","","","","","","","1","","","","","","","","","","15575.615","1.019","","",""
"null","","iti","html-keyboard-response","113","110072","0.0-2.0-32.0-4.0","","0","0","23","","","","","null","","","","15","","","","","","","","","","","","","1","","","","","","","","","","15576.634","3.5","","",""
"489","","deliberation","html-keyboard-response","114","110564","0.0-2.0-34.0-0.0","","0","0","23","","","","","50","","","","16","","","","","","","E","0","285","right","scramble","1500","1","1","56","37","objects","body_parts","Stimuli/Experimental_stims/scramble/objects/scrambled_jonathan-greenaway-Y4hGgeiFn3s-unsplash.jpg","Stimuli/Experimental_stims/scramble/body_parts/scrambled_engin-akyurt-Q2rfH3GW39c-unsplash.jpg","NA","NA","15580.134","285","false","285",""
"431","","scramble_instruction","html-keyboard-response","115","110996","0.0-2.0-34.0-1.0-0.0","","0","0","23","","","","","50","","","","16","1","56","37","objects","body_parts","0","","","","","","","1","","","","","","","","","","15865.134","1000","","","0"
"null","","deliberation_confirmation","html-keyboard-response","116","113289","0.0-2.0-34.0-2.0-0.0","","0","0","23","","","","","null","","","","16","","","","","","","","","","","","","1","","","","","","","","","","16865.134","2.284","","",""
"null","","iti","html-keyboard-response","117","114794","0.0-2.0-34.0-4.0","","0","0","23","","","","","null","","","","16","","","","","","","","","","","","","1","","","","","","","","","","16867.417999999998","1.5","","",""
"504","","deliberation","html-keyboard-response","118","115301","0.0-2.0-36.0-0.0","","0","0","23","","","","","50","","","","17","1","51","13","objects","outdoor_scenes","0","G","0","NaN","NaN","original","1500","1","1","51","13","objects","outdoor_scenes","Stimuli/Experimental_stims/objects/art-lasovsky-8XddFc6NkBY-unsplash.jpg","Stimuli/Experimental_stims/outdoor_scenes/ashim-d-silva-S2Q5mdOrrVc-unsplash.jpg","50","50","16868.917999999998","0.504","","",""
"null","","deliberation_confirmation","html-keyboard-response","119","117801","0.0-2.0-36.0-2.0-0.0","","0","0","23","","","","","null","","","","17","","","","","","","","","","","","","1","","","","","","","","","","16869.422","2.496","","",""
"null","","iti","html-keyboard-response","120","119305","0.0-2.0-36.0-4.0","","0","0","23","","","","","null","","","","17","","","","","","","","","","","","","1","","","","","","","","","","16871.917999999998","1.5","","",""
"609","","deliberation","html-keyboard-response","121","119917","0.0-2.0-38.0-0.0","","0","0","23","","","","","50","","","","18","1","40","17","body_parts","outdoor_scenes","0","I","0","NaN","NaN","original","3000","1","1","40","17","body_parts","outdoor_scenes","Stimuli/Experimental_stims/body_parts/klara-kulikova-TcUfF24fUMY-unsplash.jpg","Stimuli/Experimental_stims/outdoor_scenes/jeff-king-bJHWJeiHfHc-unsplash.jpg","50","50","16873.417999999998","0.609","","",""
"null","","deliberation_confirmation","html-keyboard-response","122","122314","0.0-2.0-38.0-2.0-0.0","","0","0","23","","","","","null","","","","18","","","","","","","","","","","","","1","","","","","","","","","","16874.027","2.391","","",""
"null","","iti","html-keyboard-response","123","125323","0.0-2.0-38.0-4.0","","0","0","23","","","","","null","","","","18","","","","","","","","","","","","","1","","","","","","","","","","16876.417999999998","3","","",""
"767","","deliberation","html-keyboard-response","124","126094","0.0-2.0-40.0-0.0","","0","0","23","","","","","50","","","","19","","","","","","","A","0","1137","right","scramble","3000","1","1","21","49","outdoor_scenes","objects","Stimuli/Experimental_stims/scramble/outdoor_scenes/scrambled_sergey-pesterev-y-b_FOmJXdg-unsplash.jpg","Stimuli/Experimental_stims/scramble/objects/scrambled_alexander-andrews-VLGWE_SumrA-unsplash.jpg","NA","NA","16879.417999999998","1137","false","1137",""
"373","","scramble_instruction","html-keyboard-response","125","126469","0.0-2.0-40.0-1.0-0.0","","0","0","23","","","","","50","","","","19","1","21","49","outdoor_scenes","objects","0","","","","","","","1","","","","","","","","","","18016.417999999998","1000","","","0"
"null","","deliberation_confirmation","html-keyboard-response","126","127973","0.0-2.0-40.0-2.0-0.0","","0","0","23","","","","","null","","","","19","","","","","","","","","","","","","1","","","","","","","","","","19016.417999999998","1.49","","",""
"null","","iti","html-keyboard-response","127","130981","0.0-2.0-40.0-4.0","","0","0","23","","","","","null","","","","19","","","","","","","","","","","","","1","","","","","","","","","","19017.908","3","","",""
"419","","deliberation","html-keyboard-response","128","131402","0.0-2.0-42.0-0.0","","0","0","23","","","","","50","","","","20","","","","","","","G","0","1994","left","scramble","1500","1","1","51","13","objects","outdoor_scenes","Stimuli/Experimental_stims/scramble/objects/scrambled_art-lasovsky-8XddFc6NkBY-unsplash.jpg","Stimuli/Experimental_stims/scramble/outdoor_scenes/scrambled_ashim-d-silva-S2Q5mdOrrVc-unsplash.jpg","NA","NA","19020.908","1994","false","1994",""
"329","","scramble_instruction","html-keyboard-response","129","131733","0.0-2.0-42.0-1.0-0.0","","0","0","23","","","","","50","","","","20","1","51","13","objects","outdoor_scenes","0","","","","","","","1","","","","","","","","","","21014.908","1000","","","1"
"null","","deliberation_confirmation","html-keyboard-response","130","132420","0.0-2.0-42.0-2.0-0.0","","0","0","23","","","","","null","","","","20","","","","","","","","","","","","","1","","","","","","","","","","22014.908","0.677","","",""
"null","","iti","html-keyboard-response","131","133930","0.0-2.0-42.0-4.0","","0","0","23","","","","","null","","","","20","","","","","","","","","","","","","1","","","","","","","","","","22015.585","1.5","","",""
"364","","deliberation","html-keyboard-response","132","134298","0.0-2.0-44.0-0.0","","0","0","23","","","","","50","","","","21","1","46","52","body_parts","objects","0","K","0","NaN","NaN","original","1000","1","1","46","52","body_parts","objects","Stimuli/Experimental_stims/body_parts/sincerely-media-VN6DbKajo5s-unsplash.jpg","Stimuli/Experimental_stims/objects/fabian-blank-pElSkGRA2NU-unsplash.jpg","50","50","22017.085","0.364","","",""
"null","","deliberation_confirmation","html-keyboard-response","133","136942","0.0-2.0-44.0-2.0-0.0","","0","0","23","","","","","null","","","","21","","","","","","","","","","","","","1","","","","","","","","","","22017.449","2.636","","",""
"null","","iti","html-keyboard-response","134","137946","0.0-2.0-44.0-4.0","","0","0","23","","","","","null","","","","21","","","","","","","","","","","","","1","","","","","","","","","","22020.085","1","","",""
"240","","deliberation","html-keyboard-response","135","138189","0.0-2.0-46.0-0.0","","0","0","23","","","","","50","","","","22","1","32","58","faces","objects","0","J","0","NaN","NaN","original","3000","1","1","32","58","faces","objects","Stimuli/Experimental_stims/faces/justin-chen-J7Cf1Gch49E-unsplash.jpg","Stimuli/Experimental_stims/objects/mockup-graphics-PNsj6RiHAF4-unsplash.jpg","50","50","22021.085","0.24","","",""
"null","","deliberation_confirmation","html-keyboard-response","136","140956","0.0-2.0-46.0-2.0-0.0","","0","0","23","","","","","null","","","","22","","","","","","","","","","","","","1","","","","","","","","","","22021.325","2.76","","",""
"null","","iti","html-keyboard-response","137","143962","0.0-2.0-46.0-4.0","","0","0","23","","","","","null","","","","22","","","","","","","","","","","","","1","","","","","","","","","","22024.085","3","","",""
"440","","deliberation","html-keyboard-response","138","144405","0.0-2.0-48.0-0.0","","0","0","23","","","","","50","","","","23","","","","","","","J","0","1604","left","scramble","1000","1","1","32","58","faces","objects","Stimuli/Experimental_stims/scramble/faces/scrambled_justin-chen-J7Cf1Gch49E-unsplash.jpg","Stimuli/Experimental_stims/scramble/objects/scrambled_mockup-graphics-PNsj6RiHAF4-unsplash.jpg","NA","NA","22027.085","1604","false","1604",""
"318","","scramble_instruction","html-keyboard-response","139","144724","0.0-2.0-48.0-1.0-0.0","","0","0","23","","","","","50","","","","23","1","32","58","faces","objects","0","","","","","","","1","","","","","","","","","","23631.085","1000","","","1"
"null","","deliberation_confirmation","html-keyboard-response","140","145813","0.0-2.0-48.0-2.0-0.0","","0","0","23","","","","","null","","","","23","","","","","","","","","","","","","1","","","","","","","","","","24631.085","1.078","","",""
"null","","iti","html-keyboard-response","141","146822","0.0-2.0-48.0-4.0","","0","0","23","","","","","null","","","","23","","","","","","","","","","","","","1","","","","","","","","","","24632.163","1","","",""
"2084","","deliberation","html-keyboard-response","142","148909","0.0-2.0-50.0-0.0","","0","0","23","","","","","50","","","","24","1","35","23","faces","outdoor_scenes","0","H","0","NaN","NaN","original","2000","1","1","35","23","faces","outdoor_scenes","Stimuli/Experimental_stims/faces/rikonavt-HQjfrvdTfak-unsplash.jpg","Stimuli/Experimental_stims/outdoor_scenes/yuriy-bogdanov-W51VK3Obcj0-unsplash.jpg","50","50","24633.163","2.084","","",""
"null","","deliberation_confirmation","html-keyboard-response","143","149838","0.0-2.0-50.0-2.0-0.0","","0","0","23","","","","","null","","","","24","","","","","","","","","","","","","1","","","","","","","","","","24635.247","0.916","","",""
"null","","iti","html-keyboard-response","144","151846","0.0-2.0-50.0-4.0","","0","0","23","","","","","null","","","","24","","","","","","","","","","","","","1","","","","","","","","","","24636.163","2","","",""
"404","","deliberation","html-keyboard-response","145","152254","0.0-2.0-52.0-0.0","","0","0","23","","","","","50","","","","25","","","","","","","I","0","1489","left","scramble","1500","1","1","40","17","body_parts","outdoor_scenes","Stimuli/Experimental_stims/scramble/body_parts/scrambled_klara-kulikova-TcUfF24fUMY-unsplash.jpg","Stimuli/Experimental_stims/scramble/outdoor_scenes/scrambled_jeff-king-bJHWJeiHfHc-unsplash.jpg","NA","NA","24638.163","1489","false","1489",""
"246","","scramble_instruction","html-keyboard-response","146","152501","0.0-2.0-52.0-1.0-0.0","","0","0","23","","","","","50","","","","25","1","40","17","body_parts","outdoor_scenes","0","","","","","","","1","","","","","","","","","","26127.163","1000","","","1"
"null","","deliberation_confirmation","html-keyboard-response","147","153774","0.0-2.0-52.0-2.0-0.0","","0","0","23","","","","","null","","","","25","","","","","","","","","","","","","1","","","","","","","","","","27127.163","1.265","","",""
"null","","iti","html-keyboard-response","148","155286","0.0-2.0-52.0-4.0","","0","0","23","","","","","null","","","","25","","","","","","","","","","","","","1","","","","","","","","","","27128.428","1.5","","",""
"437","","deliberation","html-keyboard-response","149","155725","0.0-2.0-54.0-0.0","","0","0","23","","","","","50","","","","26","1","57","30","objects","faces","0","D","0","NaN","NaN","original","1500","1","1","57","30","objects","faces","Stimuli/Experimental_stims/objects/kuiye-chen-NuOGFo4PudE-unsplash.jpg","Stimuli/Experimental_stims/faces/good-faces-xmSWVeGEnJw-unsplash.jpg","50","50","27129.928","0.437","","",""
"null","","deliberation_confirmation","html-keyboard-response","150","158300","0.0-2.0-54.0-2.0-0.0","","0","0","23","","","","","null","","","","26","","","","","","","","","","","","","1","","","","","","","","","","27130.365","2.563","","",""
"null","","iti","html-keyboard-response","151","159814","0.0-2.0-54.0-4.0","","0","0","23","","","","","null","","","","26","","","","","","","","","","","","","1","","","","","","","","","","27132.928","1.5","","",""
"709","","deliberation","html-keyboard-response","152","160525","0.0-2.0-56.0-0.0","","0","0","23","","","","","50","","","","27","","","","","","","H","0","1143","right","scramble","2000","1","1","35","23","faces","outdoor_scenes","Stimuli/Experimental_stims/scramble/faces/scrambled_rikonavt-HQjfrvdTfak-unsplash.jpg","Stimuli/Experimental_stims/scramble/outdoor_scenes/scrambled_yuriy-bogdanov-W51VK3Obcj0-unsplash.jpg","NA","NA","27134.428","1143","false","1143",""
"374","","scramble_instruction","html-keyboard-response","153","160901","0.0-2.0-56.0-1.0-0.0","","0","0","23","","","","","50","","","","27","1","35","23","faces","outdoor_scenes","0","","","","","","","1","","","","","","","","","","28277.428","1000","","","0"
"null","","deliberation_confirmation","html-keyboard-response","154","162393","0.0-2.0-56.0-2.0-0.0","","0","0","23","","","","","null","","","","27","","","","","","","","","","","","","1","","","","","","","","","","29277.428","1.483","","",""
"null","","iti","html-keyboard-response","155","164401","0.0-2.0-56.0-4.0","","0","0","23","","","","","null","","","","27","","","","","","","","","","","","","1","","","","","","","","","","29278.911","2","","",""
"504","","deliberation","html-keyboard-response","156","164910","0.0-2.0-58.0-0.0","","0","0","23","","","","","50","","","","28","1","40","17","body_parts","outdoor_scenes","0","I","0","NaN","NaN","original","2000","2","1","40","17","body_parts","outdoor_scenes","Stimuli/Experimental_stims/body_parts/klara-kulikova-TcUfF24fUMY-unsplash.jpg","Stimuli/Experimental_stims/outdoor_scenes/jeff-king-bJHWJeiHfHc-unsplash.jpg","50","50","29280.911","0.504","","",""
"null","","deliberation_confirmation","html-keyboard-response","157","167414","0.0-2.0-58.0-2.0-0.0","","0","0","23","","","","","null","","","","28","","","","","","","","","","","","","2","","","","","","","","","","29281.415","2.496","","",""
"null","","iti","html-keyboard-response","158","169423","0.0-2.0-58.0-4.0","","0","0","23","","","","","null","","","","28","","","","","","","","","","","","","2","","","","","","","","","","29283.911","2","","",""
"622","","deliberation","html-keyboard-response","159","170046","0.0-2.0-60.0-0.0","","0","0","23","","","","","50","","","","29","1","46","52","body_parts","objects","0","K","0","NaN","NaN","original","1500","2","1","46","52","body_parts","objects","Stimuli/Experimental_stims/body_parts/sincerely-media-VN6DbKajo5s-unsplash.jpg","Stimuli/Experimental_stims/objects/fabian-blank-pElSkGRA2NU-unsplash.jpg","50","50","29285.911","0.622","","",""
"null","","deliberation_confirmation","html-keyboard-response","160","172435","0.0-2.0-60.0-2.0-0.0","","0","0","23","","","","","null","","","","29","","","","","","","","","","","","","2","","","","","","","","","","29286.533","2.378","","",""
"null","","iti","html-keyboard-response","161","173938","0.0-2.0-60.0-4.0","","0","0","23","","","","","null","","","","29","","","","","","","","","","","","","2","","","","","","","","","","29288.911","1.5","","",""
"546","","deliberation","html-keyboard-response","162","174486","0.0-2.0-62.0-0.0","","0","0","23","","","","","50","","","","30","1","51","13","objects","outdoor_scenes","0","G","0","NaN","NaN","original","1000","2","1","51","13","objects","outdoor_scenes","Stimuli/Experimental_stims/objects/art-lasovsky-8XddFc6NkBY-unsplash.jpg","Stimuli/Experimental_stims/outdoor_scenes/ashim-d-silva-S2Q5mdOrrVc-unsplash.jpg","50","50","29290.411","0.546","","",""
"null","","deliberation_confirmation","html-keyboard-response","163","176948","0.0-2.0-62.0-2.0-0.0","","0","0","23","","","","","null","","","","30","","","","","","","","","","","","","2","","","","","","","","","","29290.957","2.454","","",""
"null","","iti","html-keyboard-response","164","177959","0.0-2.0-62.0-4.0","","0","0","23","","","","","null","","","","30","","","","","","","","","","","","","2","","","","","","","","","","29293.411","1","","",""
"508","","deliberation","html-keyboard-response","165","178470","0.0-2.0-64.0-0.0","","0","0","23","","","","","50","","","","31","1","22","24","outdoor_scenes","faces","0","B","0","NaN","NaN","original","1000","2","1","22","24","outdoor_scenes","faces","Stimuli/Experimental_stims/outdoor_scenes/stephen-leonardi-gyIRjKPXupE-unsplash.jpg","Stimuli/Experimental_stims/faces/abstral-official-cyOKLSgkgCE-unsplash.jpg","50","50","29294.411","0.508","","",""
"null","","deliberation_confirmation","html-keyboard-response","166","180974","0.0-2.0-64.0-2.0-0.0","","0","0","23","","","","","null","","","","31","","","","","","","","","","","","","2","","","","","","","","","","29294.919","2.492","","",""
"null","","iti","html-keyboard-response","167","181981","0.0-2.0-64.0-4.0","","0","0","23","","","","","null","","","","31","","","","","","","","","","","","","2","","","","","","","","","","29297.411","1","","",""
"470","","deliberation","html-keyboard-response","168","182454","0.0-2.0-66.0-0.0","","0","0","23","","","","","50","","","","32","1","56","37","objects","body_parts","0","E","0","NaN","NaN","original","1000","2","1","56","37","objects","body_parts","Stimuli/Experimental_stims/objects/jonathan-greenaway-Y4hGgeiFn3s-unsplash.jpg","Stimuli/Experimental_stims/body_parts/engin-akyurt-Q2rfH3GW39c-unsplash.jpg","50","50","29298.411","0.47","","",""
"null","","deliberation_confirmation","html-keyboard-response","169","184999","0.0-2.0-66.0-2.0-0.0","","0","0","23","","","","","null","","","","32","","","","","","","","","","","","","2","","","","","","","","","","29298.881","2.53","","",""
"null","","iti","html-keyboard-response","170","186005","0.0-2.0-66.0-4.0","","0","0","23","","","","","null","","","","32","","","","","","","","","","","","","2","","","","","","","","","","29301.411","1","","",""
"610","","deliberation","html-keyboard-response","171","186619","0.0-2.0-68.0-0.0","","0","0","23","","","","","50","","","","33","1","21","49","outdoor_scenes","objects","0","A","0","NaN","NaN","original","3000","2","1","21","49","outdoor_scenes","objects","Stimuli/Experimental_stims/outdoor_scenes/sergey-pesterev-y-b_FOmJXdg-unsplash.jpg","Stimuli/Experimental_stims/objects/alexander-andrews-VLGWE_SumrA-unsplash.jpg","50","50","29302.411","0.61","","",""
"null","","deliberation_confirmation","html-keyboard-response","172","189019","0.0-2.0-68.0-2.0-0.0","","0","0","23","","","","","null","","","","33","","","","","","","","","","","","","2","","","","","","","","","","29303.021","2.39","","",""
"null","","iti","html-keyboard-response","173","192028","0.0-2.0-68.0-4.0","","0","0","23","","","","","null","","","","33","","","","","","","","","","","","","2","","","","","","","","","","29305.411","3","","",""
"533","","deliberation","html-keyboard-response","174","192563","0.0-2.0-70.0-0.0","","0","0","23","","","","","50","","","","34","","","","","","","C","0","1689","left","scramble","1000","2","1","15","41","outdoor_scenes","body_parts","Stimuli/Experimental_stims/scramble/outdoor_scenes/scrambled_henry-be-NLF6hTe4PAg-unsplash.jpg","Stimuli/Experimental_stims/scramble/body_parts/scrambled_lucaxx-freire-CacZwMexYdk-unsplash.jpg","NA","NA","29308.411","1689","false","1689",""
"361","","scramble_instruction","html-keyboard-response","175","192926","0.0-2.0-70.0-1.0-0.0","","0","0","23","","","","","50","","","","34","1","15","41","outdoor_scenes","body_parts","0","","","","","","","2","","","","","","","","","","30997.411","1000","","","1"
"null","","deliberation_confirmation","html-keyboard-response","176","193882","0.0-2.0-70.0-2.0-0.0","","0","0","23","","","","","null","","","","34","","","","","","","","","","","","","2","","","","","","","","","","31997.411","0.95","","",""
"null","","iti","html-keyboard-response","177","194892","0.0-2.0-70.0-4.0","","0","0","23","","","","","null","","","","34","","","","","","","","","","","","","2","","","","","","","","","","31998.361","1","","",""
"303","","deliberation","html-keyboard-response","178","195198","0.0-2.0-72.0-0.0","","0","0","23","","","","","50","","","","35","","","","","","","A","0","1822","right","scramble","1000","2","1","21","49","outdoor_scenes","objects","Stimuli/Experimental_stims/scramble/outdoor_scenes/scrambled_sergey-pesterev-y-b_FOmJXdg-unsplash.jpg","Stimuli/Experimental_stims/scramble/objects/scrambled_alexander-andrews-VLGWE_SumrA-unsplash.jpg","NA","NA","31999.361","1822","false","1822",""
"271","","scramble_instruction","html-keyboard-response","179","195470","0.0-2.0-72.0-1.0-0.0","","0","0","23","","","","","50","","","","35","1","21","49","outdoor_scenes","objects","0","","","","","","","2","","","","","","","","","","33821.361000000004","1000","","","0"
"null","","deliberation_confirmation","html-keyboard-response","180","196387","0.0-2.0-72.0-2.0-0.0","","0","0","23","","","","","null","","","","35","","","","","","","","","","","","","2","","","","","","","","","","34821.361000000004","0.907","","",""
"null","","iti","html-keyboard-response","181","197390","0.0-2.0-72.0-4.0","","0","0","23","","","","","null","","","","35","","","","","","","","","","","","","2","","","","","","","","","","34822.268000000004","1","","",""
"322","","deliberation","html-keyboard-response","182","197715","0.0-2.0-74.0-0.0","","0","0","23","","","","","50","","","","36","","","","","","","D","0","1692","right","scramble","1500","2","1","57","30","objects","faces","Stimuli/Experimental_stims/scramble/objects/scrambled_kuiye-chen-NuOGFo4PudE-unsplash.jpg","Stimuli/Experimental_stims/scramble/faces/scrambled_good-faces-xmSWVeGEnJw-unsplash.jpg","NA","NA","34823.268000000004","1692","false","1692",""
"218","","scramble_instruction","html-keyboard-response","183","197934","0.0-2.0-74.0-1.0-0.0","","0","0","23","","","","","50","","","","36","1","57","30","objects","faces","0","","","","","","","2","","","","","","","","","","36515.268000000004","1000","","","0"
"null","","deliberation_confirmation","html-keyboard-response","184","199028","0.0-2.0-74.0-2.0-0.0","","0","0","23","","","","","null","","","","36","","","","","","","","","","","","","2","","","","","","","","","","37515.268000000004","1.09","","",""
"null","","iti","html-keyboard-response","185","200531","0.0-2.0-74.0-4.0","","0","0","23","","","","","null","","","","36","","","","","","","","","","","","","2","","","","","","","","","","37516.358","1.5","","",""
"89","","deliberation","html-keyboard-response","186","200622","0.0-2.0-76.0-0.0","","0","0","23","","","","","50","","","","37","","","","","","","B","0","1250","left","scramble","3000","2","1","22","24","outdoor_scenes","faces","Stimuli/Experimental_stims/scramble/outdoor_scenes/scrambled_stephen-leonardi-gyIRjKPXupE-unsplash.jpg","Stimuli/Experimental_stims/scramble/faces/scrambled_abstral-official-cyOKLSgkgCE-unsplash.jpg","NA","NA","37517.858","1250","false","1250",""
"263","","scramble_instruction","html-keyboard-response","187","200886","0.0-2.0-76.0-1.0-0.0","","0","0","23","","","","","50","","","","37","1","22","24","outdoor_scenes","faces","0","","","","","","","2","","","","","","","","","","38767.858","1000","","","1"
"null","","deliberation_confirmation","html-keyboard-response","188","202380","0.0-2.0-76.0-2.0-0.0","","0","0","23","","","","","null","","","","37","","","","","","","","","","","","","2","","","","","","","","","","39767.858","1.487","","",""
"null","","iti","html-keyboard-response","189","205391","0.0-2.0-76.0-4.0","","0","0","23","","","","","null","","","","37","","","","","","","","","","","","","2","","","","","","","","","","39769.345","3","","",""
"165","","deliberation","html-keyboard-response","190","205558","0.0-2.0-78.0-0.0","","0","0","23","","","","","50","","","","38","","","","","","","G","0","1773","left","scramble","1500","2","1","51","13","objects","outdoor_scenes","Stimuli/Experimental_stims/scramble/objects/scrambled_art-lasovsky-8XddFc6NkBY-unsplash.jpg","Stimuli/Experimental_stims/scramble/outdoor_scenes/scrambled_ashim-d-silva-S2Q5mdOrrVc-unsplash.jpg","NA","NA","39772.345","1773","false","1773",""
"239","","scramble_instruction","html-keyboard-response","191","205799","0.0-2.0-78.0-1.0-0.0","","0","0","23","","","","","50","","","","38","1","51","13","objects","outdoor_scenes","0","","","","","","","2","","","","","","","","","","41545.345","1000","","","1"
"null","","deliberation_confirmation","html-keyboard-response","192","206796","0.0-2.0-78.0-2.0-0.0","","0","0","23","","","","","null","","","","38","","","","","","","","","","","","","2","","","","","","","","","","42545.345","0.988","","",""
"null","","iti","html-keyboard-response","193","208301","0.0-2.0-78.0-4.0","","0","0","23","","","","","null","","","","38","","","","","","","","","","","","","2","","","","","","","","","","42546.333","1.5","","",""
"631","","deliberation","html-keyboard-response","194","208935","0.0-2.0-80.0-0.0","","0","0","23","","","","","50","","","","39","1","15","41","outdoor_scenes","body_parts","0","C","0","NaN","NaN","original","1500","2","1","15","41","outdoor_scenes","body_parts","Stimuli/Experimental_stims/outdoor_scenes/henry-be-NLF6hTe4PAg-unsplash.jpg","Stimuli/Experimental_stims/body_parts/lucaxx-freire-CacZwMexYdk-unsplash.jpg","50","50","42547.833","0.631","","",""
"null","","deliberation_confirmation","html-keyboard-response","195","211308","0.0-2.0-80.0-2.0-0.0","","0","0","23","","","","","null","","","","39","","","","","","","","","","","","","2","","","","","","","","","","42548.464","2.369","","",""
"null","","iti","html-keyboard-response","196","212811","0.0-2.0-80.0-4.0","","0","0","23","","","","","null","","","","39","","","","","","","","","","","","","2","","","","","","","","","","42550.833","1.5","","",""
"477","","deliberation","html-keyboard-response","197","213292","0.0-2.0-82.0-0.0","","0","0","23","","","","","50","","","","40","1","57","30","objects","faces","0","D","0","NaN","NaN","original","3000","2","1","57","30","objects","faces","Stimuli/Experimental_stims/objects/kuiye-chen-NuOGFo4PudE-unsplash.jpg","Stimuli/Experimental_stims/faces/good-faces-xmSWVeGEnJw-unsplash.jpg","50","50","42552.333","0.477","","",""
"null","","deliberation_confirmation","html-keyboard-response","198","215820","0.0-2.0-82.0-2.0-0.0","","0","0","23","","","","","null","","","","40","","","","","","","","","","","","","2","","","","","","","","","","42552.81","2.523","","",""
"null","","iti","html-keyboard-response","199","218828","0.0-2.0-82.0-4.0","","0","0","23","","","","","null","","","","40","","","","","","","","","","","","","2","","","","","","","","","","42555.333","3","","",""
"55","","deliberation","html-keyboard-response","200","218887","0.0-2.0-84.0-0.0","","0","0","23","","","","","50","","","","41","","","","","","","L","0","1642","right","scramble","1000","2","1","44","25","body_parts","faces","Stimuli/Experimental_stims/scramble/body_parts/scrambled_pure-julia-9lVaya31sMk-unsplash.jpg","Stimuli/Experimental_stims/scramble/faces/scrambled_aiony-haust-jmATI5Q_YgY-unsplash.jpg","NA","NA","42558.333","1642","false","1642",""
"287","","scramble_instruction","html-keyboard-response","201","219176","0.0-2.0-84.0-1.0-0.0","","0","0","23","","","","","50","","","","41","1","44","25","body_parts","faces","0","","","","","","","2","","","","","","","","","","44200.333","1000","","","0"
"null","","deliberation_confirmation","html-keyboard-response","202","220251","0.0-2.0-84.0-2.0-0.0","","0","0","23","","","","","null","","","","41","","","","","","","","","","","","","2","","","","","","","","","","45200.333","1.071","","",""
"null","","iti","html-keyboard-response","203","221264","0.0-2.0-84.0-4.0","","0","0","23","","","","","null","","","","41","","","","","","","","","","","","","2","","","","","","","","","","45201.404","1","","",""
"388","","deliberation","html-keyboard-response","204","221655","0.0-2.0-86.0-0.0","","0","0","23","","","","","50","","","","42","","","","","","","J","0","1606","right","scramble","3000","2","1","32","58","faces","objects","Stimuli/Experimental_stims/scramble/faces/scrambled_justin-chen-J7Cf1Gch49E-unsplash.jpg","Stimuli/Experimental_stims/scramble/objects/scrambled_mockup-graphics-PNsj6RiHAF4-unsplash.jpg","NA","NA","45202.404","1606","false","1606",""
"254","","scramble_instruction","html-keyboard-response","205","221910","0.0-2.0-86.0-1.0-0.0","","0","0","23","","","","","50","","","","42","1","32","58","faces","objects","0","","","","","","","2","","","","","","","","","","46808.404","1000","","","0"
"null","","deliberation_confirmation","html-keyboard-response","206","223064","0.0-2.0-86.0-2.0-0.0","","0","0","23","","","","","null","","","","42","","","","","","","","","","","","","2","","","","","","","","","","47808.404","1.14","","",""
"null","","iti","html-keyboard-response","207","226070","0.0-2.0-86.0-4.0","","0","0","23","","","","","null","","","","42","","","","","","","","","","","","","2","","","","","","","","","","47809.544","3","","",""
"372","","deliberation","html-keyboard-response","208","226446","0.0-2.0-88.0-0.0","","0","0","23","","","","","50","","","","43","1","32","58","faces","objects","0","J","0","NaN","NaN","original","1500","2","1","32","58","faces","objects","Stimuli/Experimental_stims/faces/justin-chen-J7Cf1Gch49E-unsplash.jpg","Stimuli/Experimental_stims/objects/mockup-graphics-PNsj6RiHAF4-unsplash.jpg","50","50","47812.544","0.372","","",""
"null","","deliberation_confirmation","html-keyboard-response","209","229084","0.0-2.0-88.0-2.0-0.0","","0","0","23","","","","","null","","","","43","","","","","","","","","","","","","2","","","","","","","","","","47812.916000000005","2.628","","",""
"null","","iti","html-keyboard-response","210","230592","0.0-2.0-88.0-4.0","","0","0","23","","","","","null","","","","43","","","","","","","","","","","","","2","","","","","","","","","","47815.544","1.5","","",""
"586","","deliberation","html-keyboard-response","211","231181","0.0-2.0-90.0-0.0","","0","0","23","","","","","50","","","","44","1","29","45","faces","body_parts","0","F","0","NaN","NaN","original","2000","2","1","29","45","faces","body_parts","Stimuli/Experimental_stims/faces/freddy-kearney-o-ioeoATbIM-unsplash.jpg","Stimuli/Experimental_stims/body_parts/sincerely-media-7TBFwUQA6Xk-unsplash.jpg","50","50","47817.044","0.586","","",""
"null","","deliberation_confirmation","html-keyboard-response","212","233606","0.0-2.0-90.0-2.0-0.0","","0","0","23","","","","","null","","","","44","","","","","","","","","","","","","2","","","","","","","","","","47817.630000000005","2.414","","",""
"null","","iti","html-keyboard-response","213","235613","0.0-2.0-90.0-4.0","","0","0","23","","","","","null","","","","44","","","","","","","","","","","","","2","","","","","","","","","","47820.044","2","","",""
"352","","deliberation","html-keyboard-response","214","235967","0.0-2.0-92.0-0.0","","0","0","23","","","","","50","","","","45","","","","","","","K","0","1191","left","scramble","3500","2","1","46","52","body_parts","objects","Stimuli/Experimental_stims/scramble/body_parts/scrambled_sincerely-media-VN6DbKajo5s-unsplash.jpg","Stimuli/Experimental_stims/scramble/objects/scrambled_fabian-blank-pElSkGRA2NU-unsplash.jpg","NA","NA","47822.044","1191","false","1191",""
"295","","scramble_instruction","html-keyboard-response","215","236263","0.0-2.0-92.0-1.0-0.0","","0","0","23","","","","","50","","","","45","1","46","52","body_parts","objects","0","","","","","","","2","","","","","","","","","","49013.044","1000","","","1"
"null","","deliberation_confirmation","html-keyboard-response","216","237784","0.0-2.0-92.0-2.0-0.0","","0","0","23","","","","","null","","","","45","","","","","","","","","","","","","2","","","","","","","","","","50013.044","1.514","","",""
"null","","iti","html-keyboard-response","217","241293","0.0-2.0-92.0-4.0","","0","0","23","","","","","null","","","","45","","","","","","","","","","","","","2","","","","","","","","","","50014.558000000005","3.5","","",""
"616","","deliberation","html-keyboard-response","218","241912","0.0-2.0-94.0-0.0","","0","0","23","","","","","50","","","","46","","","","","","","F","0","1084","right","scramble","1000","2","1","29","45","faces","body_parts","Stimuli/Experimental_stims/scramble/faces/scrambled_freddy-kearney-o-ioeoATbIM-unsplash.jpg","Stimuli/Experimental_stims/scramble/body_parts/scrambled_sincerely-media-7TBFwUQA6Xk-unsplash.jpg","NA","NA","50018.058000000005","1084","false","1084",""
"499","","scramble_instruction","html-keyboard-response","219","242413","0.0-2.0-94.0-1.0-0.0","","0","0","23","","","","","50","","","","46","1","29","45","faces","body_parts","0","","","","","","","2","","","","","","","","","","51102.058000000005","1000","","","0"
"null","","deliberation_confirmation","html-keyboard-response","220","243837","0.0-2.0-94.0-2.0-0.0","","0","0","23","","","","","null","","","","46","","","","","","","","","","","","","2","","","","","","","","","","52102.058000000005","1.417","","",""
"null","","iti","html-keyboard-response","221","244844","0.0-2.0-94.0-4.0","","0","0","23","","","","","null","","","","46","","","","","","","","","","","","","2","","","","","","","","","","52103.475000000006","1","","",""
"650","","deliberation","html-keyboard-response","222","245496","0.0-2.0-96.0-0.0","","0","0","23","","","","","50","","","","47","1","35","23","faces","outdoor_scenes","0","H","0","NaN","NaN","original","1000","2","1","35","23","faces","outdoor_scenes","Stimuli/Experimental_stims/faces/rikonavt-HQjfrvdTfak-unsplash.jpg","Stimuli/Experimental_stims/outdoor_scenes/yuriy-bogdanov-W51VK3Obcj0-unsplash.jpg","50","50","52104.475000000006","0.65","","",""
"null","","deliberation_confirmation","html-keyboard-response","223","247855","0.0-2.0-96.0-2.0-0.0","","0","0","23","","","","","null","","","","47","","","","","","","","","","","","","2","","","","","","","","","","52105.12500000001","2.35","","",""
"null","","iti","html-keyboard-response","224","248861","0.0-2.0-96.0-4.0","","0","0","23","","","","","null","","","","47","","","","","","","","","","","","","2","","","","","","","","","","52107.475000000006","1","","",""
"551","","deliberation","html-keyboard-response","225","249415","0.0-2.0-98.0-0.0","","0","0","23","","","","","50","","","","48","","","","","","","I","0","558","left","scramble","2000","2","1","40","17","body_parts","outdoor_scenes","Stimuli/Experimental_stims/scramble/body_parts/scrambled_klara-kulikova-TcUfF24fUMY-unsplash.jpg","Stimuli/Experimental_stims/scramble/outdoor_scenes/scrambled_jeff-king-bJHWJeiHfHc-unsplash.jpg","NA","NA","52108.475000000006","558","false","558",""
"303","","scramble_instruction","html-keyboard-response","226","249720","0.0-2.0-98.0-1.0-0.0","","0","0","23","","","","","50","","","","48","1","40","17","body_parts","outdoor_scenes","0","","","","","","","2","","","","","","","","","","52666.475000000006","1000","","","1"
"null","","deliberation_confirmation","html-keyboard-response","227","251870","0.0-2.0-98.0-2.0-0.0","","0","0","23","","","","","null","","","","48","","","","","","","","","","","","","2","","","","","","","","","","53666.475000000006","2.139","","",""
"null","","iti","html-keyboard-response","228","253876","0.0-2.0-98.0-4.0","","0","0","23","","","","","null","","","","48","","","","","","","","","","","","","2","","","","","","","","","","53668.61400000001","2","","",""
"374","","deliberation","html-keyboard-response","229","254254","0.0-2.0-100.0-0.0","","0","0","23","","","","","50","","","","49","","","","","","","H","0","772","left","scramble","1500","2","1","35","23","faces","outdoor_scenes","Stimuli/Experimental_stims/scramble/faces/scrambled_rikonavt-HQjfrvdTfak-unsplash.jpg","Stimuli/Experimental_stims/scramble/outdoor_scenes/scrambled_yuriy-bogdanov-W51VK3Obcj0-unsplash.jpg","NA","NA","53670.61400000001","772","false","772",""
"280","","scramble_instruction","html-keyboard-response","230","254535","0.0-2.0-100.0-1.0-0.0","","0","0","23","","","","","50","","","","49","1","35","23","faces","outdoor_scenes","0","","","","","","","2","","","","","","","","","","54442.61400000001","1000","","","1"
"null","","deliberation_confirmation","html-keyboard-response","231","256494","0.0-2.0-100.0-2.0-0.0","","0","0","23","","","","","null","","","","49","","","","","","","","","","","","","2","","","","","","","","","","55442.61400000001","1.948","","",""
"null","","iti","html-keyboard-response","232","258001","0.0-2.0-100.0-4.0","","0","0","23","","","","","null","","","","49","","","","","","","","","","","","","2","","","","","","","","","","55444.562000000005","1.5","","",""
"492","","deliberation","html-keyboard-response","233","258496","0.0-2.0-102.0-0.0","","0","0","23","","","","","50","","","","50","","","","","","","E","0","1346","right","scramble","2000","2","1","56","37","objects","body_parts","Stimuli/Experimental_stims/scramble/objects/scrambled_jonathan-greenaway-Y4hGgeiFn3s-unsplash.jpg","Stimuli/Experimental_stims/scramble/body_parts/scrambled_engin-akyurt-Q2rfH3GW39c-unsplash.jpg","NA","NA","55446.062000000005","1346","false","1346",""
"270","","scramble_instruction","html-keyboard-response","234","258768","0.0-2.0-102.0-1.0-0.0","","0","0","23","","","","","50","","","","50","1","56","37","objects","body_parts","0","","","","","","","2","","","","","","","","","","56792.062000000005","1000","","","0"
"null","","deliberation_confirmation","html-keyboard-response","235","260159","0.0-2.0-102.0-2.0-0.0","","0","0","23","","","","","null","","","","50","","","","","","","","","","","","","2","","","","","","","","","","57792.062000000005","1.384","","",""
"null","","iti","html-keyboard-response","236","262167","0.0-2.0-102.0-4.0","","0","0","23","","","","","null","","","","50","","","","","","","","","","","","","2","","","","","","","","","","57793.446","2","","",""
"415","","deliberation","html-keyboard-response","237","262584","0.0-2.0-104.0-0.0","","0","0","23","","","","","50","","","","51","1","44","25","body_parts","faces","0","L","0","NaN","NaN","original","3500","2","1","44","25","body_parts","faces","Stimuli/Experimental_stims/body_parts/pure-julia-9lVaya31sMk-unsplash.jpg","Stimuli/Experimental_stims/faces/aiony-haust-jmATI5Q_YgY-unsplash.jpg","50","50","57795.446","0.415","","",""
"null","","deliberation_confirmation","html-keyboard-response","238","265177","0.0-2.0-104.0-2.0-0.0","","0","0","23","","","","","null","","","","51","","","","","","","","","","","","","2","","","","","","","","","","57795.861000000004","2.585","","",""
"null","","iti","html-keyboard-response","239","268684","0.0-2.0-104.0-4.0","","0","0","23","","","","","null","","","","51","","","","","","","","","","","","","2","","","","","","","","","","57798.446","3.5","","",""
"7106","","deliberation_block_over","html-keyboard-response","240","275793","0.0-2.0-104.0-6.0-0.0","","0","0","23","","","","","83","","","","51","","","","","","","","","","","","","","","","","","","","","","","","","","",""
"1159","","start_run","html-keyboard-response","241","276953","0.0-2.0-104.0-6.0-1.0","","0","0","23","","","","","84","","","","","","","","","","","","","","","","","","","","","","","","","","","","","","",""
"null","","deliberation","html-keyboard-response","242","279967","0.0-2.0-106.0-0.0","","0","0","23","","","","","null","","","","52","","","","","","1","F","0","NaN","NaN","original","1000","3","2","29","45","faces","body_parts","Stimuli/Experimental_stims/faces/freddy-kearney-o-ioeoATbIM-unsplash.jpg","Stimuli/Experimental_stims/body_parts/sincerely-media-7TBFwUQA6Xk-unsplash.jpg","50","50","0","3","","",""
"null","","deliberation_no_response","html-keyboard-response","243","280977","0.0-2.0-106.0-3.0-0.0","","1","0","23","","","","","null","","","","52","","","","","","1","","","","","","","3","","","","","","","","","","3","1","","",""
"null","","iti","html-keyboard-response","244","280989","0.0-2.0-106.0-4.0","","0","0","23","","","","","null","","","","52","","","","","","","","","","","","","3","","","","","","","","","","4","0","","",""
"null","","deliberation","html-keyboard-response","245","284653","0.0-2.0-108.0-0.0","","0","0","23","","","","","null","","","","53","","","","","","1","I","0","NaN","NaN","original","1500","3","2","40","17","body_parts","outdoor_scenes","Stimuli/Experimental_stims/body_parts/klara-kulikova-TcUfF24fUMY-unsplash.jpg","Stimuli/Experimental_stims/outdoor_scenes/jeff-king-bJHWJeiHfHc-unsplash.jpg","50","50","4","3","","",""
"null","","deliberation_no_response","html-keyboard-response","246","286396","0.0-2.0-108.0-3.0-0.0","","1","0","23","","","","","null","","","","53","","","","","","1","","","","","","","3","","","","","","","","","","7","1","","",""
"null","","iti","html-keyboard-response","247","287603","0.0-2.0-108.0-4.0","","0","0","23","","","","","null","","","","53","","","","","","","","","","","","","3","","","","","","","","","","8","0.5","","",""
"null","","deliberation","html-keyboard-response","248","292250","0.0-2.0-110.0-0.0","","0","0","23","","","","","null","","","","54","","","","","","","L","0","1293","left","scramble","2000","3","2","44","25","body_parts","faces","Stimuli/Experimental_stims/scramble/body_parts/scrambled_pure-julia-9lVaya31sMk-unsplash.jpg","Stimuli/Experimental_stims/scramble/faces/scrambled_aiony-haust-jmATI5Q_YgY-unsplash.jpg","NA","NA","8.5","1293","false","1293",""
"null","","scramble_instruction","html-keyboard-response","249","293610","0.0-2.0-110.0-1.0-0.0","","0","0","23","","","","","null","","","","54","","","","","","1","","","","","","","3","","","","","","","","","","1301.5","1000","","","0"
"null","","deliberation_no_response","html-keyboard-response","250","295799","0.0-2.0-110.0-3.0-0.0","","1","0","23","","","","","null","","","","54","","","","","","1","","","","","","","3","","","","","","","","","","2301.5","1","","",""
"null","","iti","html-keyboard-response","251","297599","0.0-2.0-110.0-4.0","","0","0","23","","","","","null","","","","54","","","","","","","","","","","","","3","","","","","","","","","","2302.5","1","","",""
"null","","deliberation","html-keyboard-response","252","302048","0.0-2.0-112.0-0.0","","0","0","23","","","","","null","","","","55","","","","","","1","L","0","NaN","NaN","original","1500","3","2","44","25","body_parts","faces","Stimuli/Experimental_stims/body_parts/pure-julia-9lVaya31sMk-unsplash.jpg","Stimuli/Experimental_stims/faces/aiony-haust-jmATI5Q_YgY-unsplash.jpg","50","50","2303.5","3","","",""
"null","","deliberation_no_response","html-keyboard-response","253","304048","0.0-2.0-112.0-3.0-0.0","","1","0","23","","","","","null","","","","55","","","","","","1","","","","","","","3","","","","","","","","","","2306.5","1","","",""
"null","","iti","html-keyboard-response","254","306048","0.0-2.0-112.0-4.0","","0","0","23","","","","","null","","","","55","","","","","","","","","","","","","3","","","","","","","","","","2307.5","0.5","","",""
"null","","deliberation","html-keyboard-response","255","309397","0.0-2.0-114.0-0.0","","0","0","23","","","","","null","","","","56","","","","","","1","J","0","NaN","NaN","original","3000","3","2","32","58","faces","objects","Stimuli/Experimental_stims/faces/justin-chen-J7Cf1Gch49E-unsplash.jpg","Stimuli/Experimental_stims/objects/mockup-graphics-PNsj6RiHAF4-unsplash.jpg","50","50","2308","3","","",""
"null","","deliberation_no_response","html-keyboard-response","256","311548","0.0-2.0-114.0-3.0-0.0","","1","0","23","","","","","null","","","","56","","","","","","1","","","","","","","3","","","","","","","","","","2311","1","","",""
"null","","iti","html-keyboard-response","257","314677","0.0-2.0-114.0-4.0","","0","0","23","","","","","null","","","","56","","","","","","","","","","","","","3","","","","","","","","","","2312","2","","",""
"null","","deliberation","html-keyboard-response","258","318397","0.0-2.0-116.0-0.0","","0","0","23","","","","","null","","","","57","","","","","","1","A","0","NaN","NaN","original","2000","3","2","21","49","outdoor_scenes","objects","Stimuli/Experimental_stims/outdoor_scenes/sergey-pesterev-y-b_FOmJXdg-unsplash.jpg","Stimuli/Experimental_stims/objects/alexander-andrews-VLGWE_SumrA-unsplash.jpg","50","50","2314","3","","",""
"null","","deliberation_no_response","html-keyboard-response","259","320397","0.0-2.0-116.0-3.0-0.0","","1","0","23","","","","","null","","","","57","","","","","","1","","","","","","","3","","","","","","","","","","2317","1","","",""
"null","","iti","html-keyboard-response","260","323389","0.0-2.0-116.0-4.0","","0","0","23","","","","","null","","","","57","","","","","","","","","","","","","3","","","","","","","","","","2318","1","","",""
"null","","deliberation","html-keyboard-response","261","326830","0.0-2.0-118.0-0.0","","0","0","23","","","","","null","","","","58","","","","","","","A","0","767","left","scramble","3000","3","2","21","49","outdoor_scenes","objects","Stimuli/Experimental_stims/scramble/outdoor_scenes/scrambled_sergey-pesterev-y-b_FOmJXdg-unsplash.jpg","Stimuli/Experimental_stims/scramble/objects/scrambled_alexander-andrews-VLGWE_SumrA-unsplash.jpg","NA","NA","2319","767","false","767",""
"null","","scramble_instruction","html-keyboard-response","262","328835","0.0-2.0-118.0-1.0-0.0","","0","0","23","","","","","null","","","","58","","","","","","1","","","","","","","3","","","","","","","","","","3086","1000","","","0"
"null","","deliberation_no_response","html-keyboard-response","263","330654","0.0-2.0-118.0-3.0-0.0","","1","0","23","","","","","null","","","","58","","","","","","1","","","","","","","3","","","","","","","","","","4086","1","","",""
"null","","iti","html-keyboard-response","264","333398","0.0-2.0-118.0-4.0","","0","0","23","","","","","null","","","","58","","","","","","","","","","","","","3","","","","","","","","","","4087","2","","",""
"null","","deliberation","html-keyboard-response","265","337798","0.0-2.0-120.0-0.0","","0","0","23","","","","","null","","","","59","","","","","","","H","0","1208","right","scramble","1500","3","2","35","23","faces","outdoor_scenes","Stimuli/Experimental_stims/scramble/faces/scrambled_rikonavt-HQjfrvdTfak-unsplash.jpg","Stimuli/Experimental_stims/scramble/outdoor_scenes/scrambled_yuriy-bogdanov-W51VK3Obcj0-unsplash.jpg","NA","NA","4089","1208","false","1208",""
"null","","scramble_instruction","html-keyboard-response","266","339398","0.0-2.0-120.0-1.0-0.0","","0","0","23","","","","","null","","","","59","","","","","","1","","","","","","","3","","","","","","","","","","5297","1000","","","0"
"null","","deliberation_no_response","html-keyboard-response","267","341793","0.0-2.0-120.0-3.0-0.0","","1","0","23","","","","","null","","","","59","","","","","","1","","","","","","","3","","","","","","","","","","6297","1","","",""
"null","","iti","html-keyboard-response","268","342685","0.0-2.0-120.0-4.0","","0","0","23","","","","","null","","","","59","","","","","","","","","","","","","3","","","","","","","","","","6298","0.5","","",""
"null","","deliberation","html-keyboard-response","269","346398","0.0-2.0-122.0-0.0","","0","0","23","","","","","null","","","","60","","","","","","","G","0","953","left","scramble","1000","3","2","51","13","objects","outdoor_scenes","Stimuli/Experimental_stims/scramble/objects/scrambled_art-lasovsky-8XddFc6NkBY-unsplash.jpg","Stimuli/Experimental_stims/scramble/outdoor_scenes/scrambled_ashim-d-silva-S2Q5mdOrrVc-unsplash.jpg","NA","NA","6298.5","953","false","953",""
"null","","scramble_instruction","html-keyboard-response","270","348398","0.0-2.0-122.0-1.0-0.0","","0","0","23","","","","","null","","","","60","","","","","","1","","","","","","","3","","","","","","","","","","7251.5","1000","","","0"
"null","","deliberation_no_response","html-keyboard-response","271","351055","0.0-2.0-122.0-3.0-0.0","","1","0","23","","","","","null","","","","60","","","","","","1","","","","","","","3","","","","","","","","","","8251.5","1","","",""
"null","","iti","html-keyboard-response","272","351528","0.0-2.0-122.0-4.0","","0","0","23","","","","","null","","","","60","","","","","","","","","","","","","3","","","","","","","","","","8252.5","0","","",""
"null","","deliberation","html-keyboard-response","273","355681","0.0-2.0-124.0-0.0","","0","0","23","","","","","null","","","","61","","","","","","","F","0","1176","right","scramble","1000","3","2","29","45","faces","body_parts","Stimuli/Experimental_stims/scramble/faces/scrambled_freddy-kearney-o-ioeoATbIM-unsplash.jpg","Stimuli/Experimental_stims/scramble/body_parts/scrambled_sincerely-media-7TBFwUQA6Xk-unsplash.jpg","NA","NA","8252.5","1176","false","1176",""
"null","","scramble_instruction","html-keyboard-response","274","357398","0.0-2.0-124.0-1.0-0.0","","0","0","23","","","","","null","","","","61","","","","","","1","","","","","","","3","","","","","","","","","","9428.5","1000","","","0"
"null","","deliberation_no_response","html-keyboard-response","275","359966","0.0-2.0-124.0-3.0-0.0","","1","0","23","","","","","null","","","","61","","","","","","1","","","","","","","3","","","","","","","","","","10428.5","1","","",""
"null","","iti","html-keyboard-response","276","360429","0.0-2.0-124.0-4.0","","0","0","23","","","","","null","","","","61","","","","","","","","","","","","","3","","","","","","","","","","10429.5","0","","",""
"null","","deliberation","html-keyboard-response","277","364399","0.0-2.0-126.0-0.0","","0","0","23","","","","","null","","","","62","","","","","","1","C","0","NaN","NaN","original","1000","3","2","15","41","outdoor_scenes","body_parts","Stimuli/Experimental_stims/outdoor_scenes/henry-be-NLF6hTe4PAg-unsplash.jpg","Stimuli/Experimental_stims/body_parts/lucaxx-freire-CacZwMexYdk-unsplash.jpg","50","50","10429.5","3","","",""
"null","","deliberation_no_response","html-keyboard-response","278","366399","0.0-2.0-126.0-3.0-0.0","","1","0","23","","","","","null","","","","62","","","","","","1","","","","","","","3","","","","","","","","","","10432.5","1","","",""
"null","","iti","html-keyboard-response","279","367399","0.0-2.0-126.0-4.0","","0","0","23","","","","","null","","","","62","","","","","","","","","","","","","3","","","","","","","","","","10433.5","0","","",""
"null","","deliberation","html-keyboard-response","280","371399","0.0-2.0-128.0-0.0","","0","0","23","","","","","null","","","","63","","","","","","1","H","0","NaN","NaN","original","1500","3","2","35","23","faces","outdoor_scenes","Stimuli/Experimental_stims/faces/rikonavt-HQjfrvdTfak-unsplash.jpg","Stimuli/Experimental_stims/outdoor_scenes/yuriy-bogdanov-W51VK3Obcj0-unsplash.jpg","50","50","10433.5","3","","",""
"null","","deliberation_no_response","html-keyboard-response","281","373399","0.0-2.0-128.0-3.0-0.0","","1","0","23","","","","","null","","","","63","","","","","","1","","","","","","","3","","","","","","","","","","10436.5","1","","",""
"null","","iti","html-keyboard-response","282","374398","0.0-2.0-128.0-4.0","","0","0","23","","","","","null","","","","63","","","","","","","","","","","","","3","","","","","","","","","","10437.5","0.5","","",""
"null","","deliberation","html-keyboard-response","283","378888","0.0-2.0-130.0-0.0","","0","0","23","","","","","null","","","","64","","","","","","1","D","0","NaN","NaN","original","3500","3","2","57","30","objects","faces","Stimuli/Experimental_stims/objects/kuiye-chen-NuOGFo4PudE-unsplash.jpg","Stimuli/Experimental_stims/faces/good-faces-xmSWVeGEnJw-unsplash.jpg","50","50","10438","3","","",""
"null","","deliberation_no_response","html-keyboard-response","284","380399","0.0-2.0-130.0-3.0-0.0","","1","0","23","","","","","null","","","","64","","","","","","1","","","","","","","3","","","","","","","","","","10441","1","","",""
"null","","iti","html-keyboard-response","285","383399","0.0-2.0-130.0-4.0","","0","0","23","","","","","null","","","","64","","","","","","","","","","","","","3","","","","","","","","","","10442","2.5","","",""
"null","","deliberation","html-keyboard-response","286","387399","0.0-2.0-132.0-0.0","","0","0","23","","","","","null","","","","65","","","","","","1","E","0","NaN","NaN","original","1000","3","2","56","37","objects","body_parts","Stimuli/Experimental_stims/objects/jonathan-greenaway-Y4hGgeiFn3s-unsplash.jpg","Stimuli/Experimental_stims/body_parts/engin-akyurt-Q2rfH3GW39c-unsplash.jpg","50","50","10444.5","3","","",""
"null","","deliberation_no_response","html-keyboard-response","287","389400","0.0-2.0-132.0-3.0-0.0","","1","0","23","","","","","null","","","","65","","","","","","1","","","","","","","3","","","","","","","","","","10447.5","1","","",""
"null","","iti","html-keyboard-response","288","390412","0.0-2.0-132.0-4.0","","0","0","23","","","","","null","","","","65","","","","","","","","","","","","","3","","","","","","","","","","10448.5","0","","",""
"null","","deliberation","html-keyboard-response","289","394414","0.0-2.0-134.0-0.0","","0","0","23","","","","","null","","","","66","","","","","","","I","0","1323","right","scramble","3000","3","2","40","17","body_parts","outdoor_scenes","Stimuli/Experimental_stims/scramble/body_parts/scrambled_klara-kulikova-TcUfF24fUMY-unsplash.jpg","Stimuli/Experimental_stims/scramble/outdoor_scenes/scrambled_jeff-king-bJHWJeiHfHc-unsplash.jpg","NA","NA","10448.5","1323","false","1323",""
"null","","scramble_instruction","html-keyboard-response","290","396546","0.0-2.0-134.0-1.0-0.0","","0","0","23","","","","","null","","","","66","","","","","","1","","","","","","","3","","","","","","","","","","11771.5","1000","","","0"
"null","","deliberation_no_response","html-keyboard-response","291","398399","0.0-2.0-134.0-3.0-0.0","","1","0","23","","","","","null","","","","66","","","","","","1","","","","","","","3","","","","","","","","","","12771.5","1","","",""
"null","","iti","html-keyboard-response","292","401659","0.0-2.0-134.0-4.0","","0","0","23","","","","","null","","","","66","","","","","","","","","","","","","3","","","","","","","","","","12772.5","2","","",""
"null","","deliberation","html-keyboard-response","293","405690","0.0-2.0-136.0-0.0","","0","0","23","","","","","null","","","","67","","","","","","1","K","0","NaN","NaN","original","1000","3","2","46","52","body_parts","objects","Stimuli/Experimental_stims/body_parts/sincerely-media-VN6DbKajo5s-unsplash.jpg","Stimuli/Experimental_stims/objects/fabian-blank-pElSkGRA2NU-unsplash.jpg","50","50","12774.5","3","","",""
"null","","deliberation_no_response","html-keyboard-response","294","408252","0.0-2.0-136.0-3.0-0.0","","1","0","23","","","","","null","","","","67","","","","","","1","","","","","","","3","","","","","","","","","","12777.5","1","","",""
"null","","iti","html-keyboard-response","295","408469","0.0-2.0-136.0-4.0","","0","0","23","","","","","null","","","","67","","","","","","","","","","","","","3","","","","","","","","","","12778.5","0","","",""
"null","","deliberation","html-keyboard-response","296","412430","0.0-2.0-138.0-0.0","","0","0","23","","","","","null","","","","68","","","","","","","B","0","1337","left","scramble","2000","3","2","22","24","outdoor_scenes","faces","Stimuli/Experimental_stims/scramble/outdoor_scenes/scrambled_stephen-leonardi-gyIRjKPXupE-unsplash.jpg","Stimuli/Experimental_stims/scramble/faces/scrambled_abstral-official-cyOKLSgkgCE-unsplash.jpg","NA","NA","12778.5","1337","false","1337",""
"null","","scramble_instruction","html-keyboard-response","297","415002","0.0-2.0-138.0-1.0-0.0","","0","0","23","","","","","null","","","","68","","","","","","1","","","","","","","3","","","","","","","","","","14115.5","1000","","","0"
"null","","deliberation_no_response","html-keyboard-response","298","416399","0.0-2.0-138.0-3.0-0.0","","1","0","23","","","","","null","","","","68","","","","","","1","","","","","","","3","","","","","","","","","","15115.5","1","","",""
"null","","iti","html-keyboard-response","299","418400","0.0-2.0-138.0-4.0","","0","0","23","","","","","null","","","","68","","","","","","","","","","","","","3","","","","","","","","","","15116.5","1","","",""
"null","","deliberation","html-keyboard-response","300","422400","0.0-2.0-140.0-0.0","","0","0","23","","","","","null","","","","69","","","","","","","K","0","1022","right","scramble","1500","3","2","46","52","body_parts","objects","Stimuli/Experimental_stims/scramble/body_parts/scrambled_sincerely-media-VN6DbKajo5s-unsplash.jpg","Stimuli/Experimental_stims/scramble/objects/scrambled_fabian-blank-pElSkGRA2NU-unsplash.jpg","NA","NA","15117.5","1022","false","1022",""
"null","","scramble_instruction","html-keyboard-response","301","424796","0.0-2.0-140.0-1.0-0.0","","0","0","23","","","","","null","","","","69","","","","","","1","","","","","","","3","","","","","","","","","","16139.5","1000","","","0"
"null","","deliberation_no_response","html-keyboard-response","302","426792","0.0-2.0-140.0-3.0-0.0","","1","0","23","","","","","null","","","","69","","","","","","1","","","","","","","3","","","","","","","","","","17139.5","1","","",""
"null","","iti","html-keyboard-response","303","427701","0.0-2.0-140.0-4.0","","0","0","23","","","","","null","","","","69","","","","","","","","","","","","","3","","","","","","","","","","17140.5","0.5","","",""
"null","","deliberation","html-keyboard-response","304","431402","0.0-2.0-142.0-0.0","","0","0","23","","","","","null","","","","70","","","","","","1","G","0","NaN","NaN","original","3000","3","2","51","13","objects","outdoor_scenes","Stimuli/Experimental_stims/objects/art-lasovsky-8XddFc6NkBY-unsplash.jpg","Stimuli/Experimental_stims/outdoor_scenes/ashim-d-silva-S2Q5mdOrrVc-unsplash.jpg","50","50","17141","3","","",""
"null","","deliberation_no_response","html-keyboard-response","305","433400","0.0-2.0-142.0-3.0-0.0","","1","0","23","","","","","null","","","","70","","","","","","1","","","","","","","3","","","","","","","","","","17144","1","","",""
"null","","iti","html-keyboard-response","306","436401","0.0-2.0-142.0-4.0","","0","0","23","","","","","null","","","","70","","","","","","","","","","","","","3","","","","","","","","","","17145","2","","",""
"null","","deliberation","html-keyboard-response","307","441114","0.0-2.0-144.0-0.0","","0","0","23","","","","","null","","","","71","","","","","","","E","0","1325","right","scramble","1000","3","2","56","37","objects","body_parts","Stimuli/Experimental_stims/scramble/objects/scrambled_jonathan-greenaway-Y4hGgeiFn3s-unsplash.jpg","Stimuli/Experimental_stims/scramble/body_parts/scrambled_engin-akyurt-Q2rfH3GW39c-unsplash.jpg","NA","NA","17147","1325","false","1325",""
"null","","scramble_instruction","html-keyboard-response","308","443037","0.0-2.0-144.0-1.0-0.0","","0","0","23","","","","","null","","","","71","","","","","","1","","","","","","","3","","","","","","","","","","18472","1000","","","0"
"null","","deliberation_no_response","html-keyboard-response","309","445017","0.0-2.0-144.0-3.0-0.0","","1","0","23","","","","","null","","","","71","","","","","","1","","","","","","","3","","","","","","","","","","19472","1","","",""
"null","","iti","html-keyboard-response","310","445482","0.0-2.0-144.0-4.0","","0","0","23","","","","","null","","","","71","","","","","","","","","","","","","3","","","","","","","","","","19473","0","","",""
"null","","deliberation","html-keyboard-response","311","450058","0.0-2.0-146.0-0.0","","0","0","23","","","","","null","","","","72","","","","","","1","B","0","NaN","NaN","original","2000","3","2","22","24","outdoor_scenes","faces","Stimuli/Experimental_stims/outdoor_scenes/stephen-leonardi-gyIRjKPXupE-unsplash.jpg","Stimuli/Experimental_stims/faces/abstral-official-cyOKLSgkgCE-unsplash.jpg","50","50","19473","3","","",""
"null","","deliberation_no_response","html-keyboard-response","312","452045","0.0-2.0-146.0-3.0-0.0","","1","0","23","","","","","null","","","","72","","","","","","1","","","","","","","3","","","","","","","","","","19476","1","","",""
"null","","iti","html-keyboard-response","313","454031","0.0-2.0-146.0-4.0","","0","0","23","","","","","null","","","","72","","","","","","","","","","","","","3","","","","","","","","","","19477","1","","",""
"null","","deliberation","html-keyboard-response","314","457502","0.0-2.0-148.0-0.0","","0","0","23","","","","","null","","","","73","","","","","","","J","0","1166","right","scramble","1500","3","2","32","58","faces","objects","Stimuli/Experimental_stims/scramble/faces/scrambled_justin-chen-J7Cf1Gch49E-unsplash.jpg","Stimuli/Experimental_stims/scramble/objects/scrambled_mockup-graphics-PNsj6RiHAF4-unsplash.jpg","NA","NA","19478","1166","false","1166",""
"null","","scramble_instruction","html-keyboard-response","315","459502","0.0-2.0-148.0-1.0-0.0","","0","0","23","","","","","null","","","","73","","","","","","1","","","","","","","3","","","","","","","","","","20644","1000","","","0"
"null","","deliberation_no_response","html-keyboard-response","316","462033","0.0-2.0-148.0-3.0-0.0","","1","0","23","","","","","null","","","","73","","","","","","1","","","","","","","3","","","","","","","","","","21644","1","","",""
"null","","iti","html-keyboard-response","317","464082","0.0-2.0-148.0-4.0","","0","0","23","","","","","null","","","","73","","","","","","","","","","","","","3","","","","","","","","","","21645","0.5","","",""
"null","","deliberation","html-keyboard-response","318","467558","0.0-2.0-150.0-0.0","","0","0","23","","","","","null","","","","74","","","","","","","D","0","367","left","scramble","3500","3","2","57","30","objects","faces","Stimuli/Experimental_stims/scramble/objects/scrambled_kuiye-chen-NuOGFo4PudE-unsplash.jpg","Stimuli/Experimental_stims/scramble/faces/scrambled_good-faces-xmSWVeGEnJw-unsplash.jpg","NA","NA","21645.5","367","false","367",""
"null","","scramble_instruction","html-keyboard-response","319","469831","0.0-2.0-150.0-1.0-0.0","","0","0","23","","","","","null","","","","74","","","","","","1","","","","","","","3","","","","","","","","","","22012.5","1000","","","0"
"null","","deliberation_no_response","html-keyboard-response","320","472182","0.0-2.0-150.0-3.0-0.0","","1","0","23","","","","","null","","","","74","","","","","","1","","","","","","","3","","","","","","","","","","23012.5","1","","",""
"null","","iti","html-keyboard-response","321","475503","0.0-2.0-150.0-4.0","","0","0","23","","","","","null","","","","74","","","","","","","","","","","","","3","","","","","","","","","","23013.5","2.5","","",""
"null","","deliberation","html-keyboard-response","322","480091","0.0-2.0-152.0-0.0","","0","0","23","","","","","null","","","","75","","","","","","","C","0","970","left","scramble","1000","3","2","15","41","outdoor_scenes","body_parts","Stimuli/Experimental_stims/scramble/outdoor_scenes/scrambled_henry-be-NLF6hTe4PAg-unsplash.jpg","Stimuli/Experimental_stims/scramble/body_parts/scrambled_lucaxx-freire-CacZwMexYdk-unsplash.jpg","NA","NA","23016","970","false","970",""
"null","","scramble_instruction","html-keyboard-response","323","482053","0.0-2.0-152.0-1.0-0.0","","0","0","23","","","","","null","","","","75","","","","","","1","","","","","","","3","","","","","","","","","","23986","1000","","","0"
"null","","deliberation_no_response","html-keyboard-response","324","484042","0.0-2.0-152.0-3.0-0.0","","1","0","23","","","","","null","","","","75","","","","","","1","","","","","","","3","","","","","","","","","","24986","1","","",""
"null","","iti","html-keyboard-response","325","484532","0.0-2.0-152.0-4.0","","0","0","23","","","","","null","","","","75","","","","","","","","","","","","","3","","","","","","","","","","24987","0","","",""
"null","","deliberation","html-keyboard-response","326","488520","0.0-2.0-154.0-0.0","","0","0","23","","","","","null","","","","76","","","","","","1","A","0","NaN","NaN","original","1500","4","2","21","49","outdoor_scenes","objects","Stimuli/Experimental_stims/outdoor_scenes/sergey-pesterev-y-b_FOmJXdg-unsplash.jpg","Stimuli/Experimental_stims/objects/alexander-andrews-VLGWE_SumrA-unsplash.jpg","50","50","24987","3","","",""
"null","","deliberation_no_response","html-keyboard-response","327","490402","0.0-2.0-154.0-3.0-0.0","","1","0","23","","","","","null","","","","76","","","","","","1","","","","","","","4","","","","","","","","","","24990","1","","",""
"null","","iti","html-keyboard-response","328","491482","0.0-2.0-154.0-4.0","","0","0","23","","","","","null","","","","76","","","","","","","","","","","","","4","","","","","","","","","","24991","0.5","","",""
"null","","deliberation","html-keyboard-response","329","495490","0.0-2.0-156.0-0.0","","0","0","23","","","","","null","","","","77","","","","","","1","H","0","NaN","NaN","original","1000","4","2","35","23","faces","outdoor_scenes","Stimuli/Experimental_stims/faces/rikonavt-HQjfrvdTfak-unsplash.jpg","Stimuli/Experimental_stims/outdoor_scenes/yuriy-bogdanov-W51VK3Obcj0-unsplash.jpg","50","50","24991.5","3","","",""
"null","","deliberation_no_response","html-keyboard-response","330","497481","0.0-2.0-156.0-3.0-0.0","","1","0","23","","","","","null","","","","77","","","","","","1","","","","","","","4","","","","","","","","","","24994.5","1","","",""
"null","","iti","html-keyboard-response","331","498402","0.0-2.0-156.0-4.0","","0","0","23","","","","","null","","","","77","","","","","","","","","","","","","4","","","","","","","","","","24995.5","0","","",""
"null","","deliberation","html-keyboard-response","332","502464","0.0-2.0-158.0-0.0","","0","0","23","","","","","null","","","","78","","","","","","","E","0","1233","right","scramble","2000","4","2","56","37","objects","body_parts","Stimuli/Experimental_stims/scramble/objects/scrambled_jonathan-greenaway-Y4hGgeiFn3s-unsplash.jpg","Stimuli/Experimental_stims/scramble/body_parts/scrambled_engin-akyurt-Q2rfH3GW39c-unsplash.jpg","NA","NA","24995.5","1233","false","1233",""
"null","","scramble_instruction","html-keyboard-response","333","504402","0.0-2.0-158.0-1.0-0.0","","0","0","23","","","","","null","","","","78","","","","","","1","","","","","","","4","","","","","","","","","","26228.5","1000","","","0"
"null","","deliberation_no_response","html-keyboard-response","334","506402","0.0-2.0-158.0-3.0-0.0","","1","0","23","","","","","null","","","","78","","","","","","1","","","","","","","4","","","","","","","","","","27228.5","1","","",""
"null","","iti","html-keyboard-response","335","508402","0.0-2.0-158.0-4.0","","0","0","23","","","","","null","","","","78","","","","","","","","","","","","","4","","","","","","","","","","27229.5","1","","",""
"null","","deliberation","html-keyboard-response","336","512549","0.0-2.0-160.0-0.0","","0","0","23","","","","","null","","","","79","","","","","","1","G","0","NaN","NaN","original","1500","4","2","51","13","objects","outdoor_scenes","Stimuli/Experimental_stims/objects/art-lasovsky-8XddFc6NkBY-unsplash.jpg","Stimuli/Experimental_stims/outdoor_scenes/ashim-d-silva-S2Q5mdOrrVc-unsplash.jpg","50","50","27230.5","3","","",""
"null","","deliberation_no_response","html-keyboard-response","337","515147","0.0-2.0-160.0-3.0-0.0","","1","0","23","","","","","null","","","","79","","","","","","1","","","","","","","4","","","","","","","","","","27233.5","1","","",""
"null","","iti","html-keyboard-response","338","517026","0.0-2.0-160.0-4.0","","0","0","23","","","","","null","","","","79","","","","","","","","","","","","","4","","","","","","","","","","27234.5","0.5","","",""
