"rt","responses","ttype","trial_type","trial_index","time_elapsed","internal_node_id","age","PID","warning","missed_checkup","success","start_time","view_history","repeat_instructions","key_press","response","stimulus_index","path","index","left_chosen","chosen_stimulus","unchosen_stimulus","chosen_category","unchosen_category","chosen_rating","unchosen_rating","no_response","pair_id","practice","scramble_screen_time","scramble_instructed_side","stim_type","iti","block","run","left_stimulus","right_stimulus","left_category","right_category","left_path","right_path","left_rating","right_rating","onset","duration","response_ends_trial","trial_duration","scramble_acc","stimulus_id","isi","item_id","outcome","response_rt","deliberation_reward_tally"
"3536","{""Q0"":""1"",""Q1"":""1""}","get_id","survey-text","0","3537","0.0-0.0-0.0-0.0","1","1","0","0","","","","","","","","","","","","","","","","","","","","","","","","","","","","","","","","","","","","","","","","","","","",""
"","","full_screen","fullscreen","1","5758","0.0-0.0-1.0","1","1","0","0","true","d04202023hr2018","","","","","","","","","","","","","","","","","","","","","","","","","","","","","","","","","","","","","","","","","",""
"1208","","ratings_instructions","instructions","2","6968","0.0-1.0-0.0-0.0","1","1","0","0","","","[{""page_index"":0,""viewing_time"":1058},{""page_index"":1,""viewing_time"":150}]","","","","","","","","","","","","","","","","","","","","","","","","","","","","","","","","","","","","","","","","",""
"2971","{""Q0"":""True"",""Q1"":""Mouse""}","rating_comprehension_check","survey-multi-choice","3","9941","0.0-1.0-0.0-1.0","1","1","0","0","","","","0","","","","","","","","","","","","","","","","","","","","","","","","","","","","","","","","","","","","","","","",""
"1298","","","html-keyboard-response","4","11241","0.0-1.0-1.0","1","1","0","0","","","","","83","","","","","","","","","","","","","","","","","","","","","","","","","","","","","","","","","","","","","","",""
"2471","","rating","html-slider-response","5","13713","0.0-1.0-2.0","1","1","0","0","","","","","","50","18","Stimuli/Experimental_stims/outdoor_scenes/meng-ji-8BH_M-53CyA-unsplash.jpg","0","","","","","","","","","","","","","","","","","","","","","","","","","","","","","","","","","","",""
"158","","rating","html-slider-response","6","13873","0.0-1.0-3.0","1","1","0","0","","","","","","50","44","Stimuli/Experimental_stims/body_parts/pure-julia-9lVaya31sMk-unsplash.jpg","1","","","","","","","","","","","","","","","","","","","","","","","","","","","","","","","","","","",""
"131","","rating","html-slider-response","7","14006","0.0-1.0-4.0","1","1","0","0","","","","","","50","51","Stimuli/Experimental_stims/objects/art-lasovsky-8XddFc6NkBY-unsplash.jpg","2","","","","","","","","","","","","","","","","","","","","","","","","","","","","","","","","","","",""
"206","","rating","html-slider-response","8","14213","0.0-1.0-5.0","1","1","0","0","","","","","","50","42","Stimuli/Experimental_stims/body_parts/lucrezia-carnelos-kn6QrWtnAtY-unsplash.jpg","3","","","","","","","","","","","","","","","","","","","","","","","","","","","","","","","","","","",""
"162","","rating","html-slider-response","9","14377","0.0-1.0-6.0","1","1","0","0","","","","","","50","41","Stimuli/Experimental_stims/body_parts/lucaxx-freire-CacZwMexYdk-unsplash.jpg","4","","","","","","","","","","","","","","","","","","","","","","","","","","","","","","","","","","",""
"158","","rating","html-slider-response","10","14537","0.0-1.0-7.0","1","1","0","0","","","","","","50","19","Stimuli/Experimental_stims/outdoor_scenes/petr-vysohlid-9fqwGqGLUxc-unsplash.jpg","5","","","","","","","","","","","","","","","","","","","","","","","","","","","","","","","","","","",""
"170","","rating","html-slider-response","11","14709","0.0-1.0-8.0","1","1","0","0","","","","","","50","20","Stimuli/Experimental_stims/outdoor_scenes/samsommer-vddccTqwal8-unsplash.jpg","6","","","","","","","","","","","","","","","","","","","","","","","","","","","","","","","","","","",""
"149","","rating","html-slider-response","12","14859","0.0-1.0-9.0","1","1","0","0","","","","","","50","29","Stimuli/Experimental_stims/faces/freddy-kearney-o-ioeoATbIM-unsplash.jpg","7","","","","","","","","","","","","","","","","","","","","","","","","","","","","","","","","","","",""
"175","","rating","html-slider-response","13","15035","0.0-1.0-10.0","1","1","0","0","","","","","","50","26","Stimuli/Experimental_stims/faces/art-hauntington-jzY0KRJopEI-unsplash.jpg","8","","","","","","","","","","","","","","","","","","","","","","","","","","","","","","","","","","",""
"155","","rating","html-slider-response","14","15192","0.0-1.0-11.0","1","1","0","0","","","","","","50","30","Stimuli/Experimental_stims/faces/good-faces-xmSWVeGEnJw-unsplash.jpg","9","","","","","","","","","","","","","","","","","","","","","","","","","","","","","","","","","","",""
"173","","rating","html-slider-response","15","15366","0.0-1.0-12.0","1","1","0","0","","","","","","50","48","Stimuli/Experimental_stims/objects/alexander-andrews-JYGnB9gTCls-unsplash.jpg","10","","","","","","","","","","","","","","","","","","","","","","","","","","","","","","","","","","",""
"181","","rating","html-slider-response","16","15549","0.0-1.0-13.0","1","1","0","0","","","","","","50","14","Stimuli/Experimental_stims/outdoor_scenes/bruno-van-der-kraan-qez8mNJ3ilU-unsplash.jpg","11","","","","","","","","","","","","","","","","","","","","","","","","","","","","","","","","","","",""
"147","","rating","html-slider-response","17","15698","0.0-1.0-14.0","1","1","0","0","","","","","","50","24","Stimuli/Experimental_stims/faces/abstral-official-cyOKLSgkgCE-unsplash.jpg","12","","","","","","","","","","","","","","","","","","","","","","","","","","","","","","","","","","",""
"189","","rating","html-slider-response","18","15888","0.0-1.0-15.0","1","1","0","0","","","","","","50","16","Stimuli/Experimental_stims/outdoor_scenes/jarrett-kow-1ZOyYPOBn7I-unsplash.jpg","13","","","","","","","","","","","","","","","","","","","","","","","","","","","","","","","","","","",""
"174","","rating","html-slider-response","19","16063","0.0-1.0-16.0","1","1","0","0","","","","","","50","40","Stimuli/Experimental_stims/body_parts/klara-kulikova-TcUfF24fUMY-unsplash.jpg","14","","","","","","","","","","","","","","","","","","","","","","","","","","","","","","","","","","",""
"179","","rating","html-slider-response","20","16243","0.0-1.0-17.0","1","1","0","0","","","","","","50","43","Stimuli/Experimental_stims/body_parts/megan-menegay-UojxG_BJxnI-unsplash.jpg","15","","","","","","","","","","","","","","","","","","","","","","","","","","","","","","","","","","",""
"174","","rating","html-slider-response","21","16419","0.0-1.0-18.0","1","1","0","0","","","","","","50","45","Stimuli/Experimental_stims/body_parts/sincerely-media-7TBFwUQA6Xk-unsplash.jpg","16","","","","","","","","","","","","","","","","","","","","","","","","","","","","","","","","","","",""
"162","","rating","html-slider-response","22","16583","0.0-1.0-19.0","1","1","0","0","","","","","","50","54","Stimuli/Experimental_stims/objects/jess-bailey-nOeVi8DsN8U-unsplash.jpg","17","","","","","","","","","","","","","","","","","","","","","","","","","","","","","","","","","","",""
"156","","rating","html-slider-response","23","16741","0.0-1.0-20.0","1","1","0","0","","","","","","50","17","Stimuli/Experimental_stims/outdoor_scenes/jeff-king-bJHWJeiHfHc-unsplash.jpg","18","","","","","","","","","","","","","","","","","","","","","","","","","","","","","","","","","","",""
"157","","rating","html-slider-response","24","16899","0.0-1.0-21.0","1","1","0","0","","","","","","50","36","Stimuli/Experimental_stims/body_parts/callum-skelton-3KLMq7y46nA-unsplash.jpg","19","","","","","","","","","","","","","","","","","","","","","","","","","","","","","","","","","","",""
"228","","rating","html-slider-response","25","17128","0.0-1.0-22.0","1","1","0","0","","","","","","50","15","Stimuli/Experimental_stims/outdoor_scenes/henry-be-NLF6hTe4PAg-unsplash.jpg","20","","","","","","","","","","","","","","","","","","","","","","","","","","","","","","","","","","",""
"173","","rating","html-slider-response","26","17303","0.0-1.0-23.0","1","1","0","0","","","","","","50","22","Stimuli/Experimental_stims/outdoor_scenes/stephen-leonardi-gyIRjKPXupE-unsplash.jpg","21","","","","","","","","","","","","","","","","","","","","","","","","","","","","","","","","","","",""
"175","","rating","html-slider-response","27","17478","0.0-1.0-24.0","1","1","0","0","","","","","","50","13","Stimuli/Experimental_stims/outdoor_scenes/ashim-d-silva-S2Q5mdOrrVc-unsplash.jpg","22","","","","","","","","","","","","","","","","","","","","","","","","","","","","","","","","","","",""
"173","","rating","html-slider-response","28","17652","0.0-1.0-25.0","1","1","0","0","","","","","","50","38","Stimuli/Experimental_stims/body_parts/engin-akyurt-x_3gyC42btc-unsplash.jpg","23","","","","","","","","","","","","","","","","","","","","","","","","","","","","","","","","","","",""
"179","","rating","html-slider-response","29","17833","0.0-1.0-26.0","1","1","0","0","","","","","","50","39","Stimuli/Experimental_stims/body_parts/jonathan-borba-hTwH8QFkPMs-unsplash.jpg","24","","","","","","","","","","","","","","","","","","","","","","","","","","","","","","","","","","",""
"175","","rating","html-slider-response","30","18008","0.0-1.0-27.0","1","1","0","0","","","","","","50","28","Stimuli/Experimental_stims/faces/erik-lucatero-d2MSDujJl2g-unsplash.jpg","25","","","","","","","","","","","","","","","","","","","","","","","","","","","","","","","","","","",""
"179","","rating","html-slider-response","31","18188","0.0-1.0-28.0","1","1","0","0","","","","","","50","55","Stimuli/Experimental_stims/objects/jiangxulei1990-eIzzzwtkBjU-unsplash.jpg","26","","","","","","","","","","","","","","","","","","","","","","","","","","","","","","","","","","",""
"172","","rating","html-slider-response","32","18362","0.0-1.0-29.0","1","1","0","0","","","","","","50","50","Stimuli/Experimental_stims/objects/andrew-petrov-TVJqDat4MAw-unsplash.jpg","27","","","","","","","","","","","","","","","","","","","","","","","","","","","","","","","","","","",""
"180","","rating","html-slider-response","33","18544","0.0-1.0-30.0","1","1","0","0","","","","","","50","58","Stimuli/Experimental_stims/objects/mockup-graphics-PNsj6RiHAF4-unsplash.jpg","28","","","","","","","","","","","","","","","","","","","","","","","","","","","","","","","","","","",""
"165","","rating","html-slider-response","34","18710","0.0-1.0-31.0","1","1","0","0","","","","","","50","34","Stimuli/Experimental_stims/faces/olena-sergienko-0TSd6uCKTKc-unsplash.jpg","29","","","","","","","","","","","","","","","","","","","","","","","","","","","","","","","","","","",""
"172","","rating","html-slider-response","35","18884","0.0-1.0-32.0","1","1","0","0","","","","","","50","33","Stimuli/Experimental_stims/faces/leilani-angel-K84vnnzxmTQ-unsplash.jpg","30","","","","","","","","","","","","","","","","","","","","","","","","","","","","","","","","","","",""
"211","","rating","html-slider-response","36","19097","0.0-1.0-33.0","1","1","0","0","","","","","","50","57","Stimuli/Experimental_stims/objects/kuiye-chen-NuOGFo4PudE-unsplash.jpg","31","","","","","","","","","","","","","","","","","","","","","","","","","","","","","","","","","","",""
"191","","rating","html-slider-response","37","19290","0.0-1.0-34.0","1","1","0","0","","","","","","50","31","Stimuli/Experimental_stims/faces/jessica-radanavong-mrYkTuAesKE-unsplash.jpg","32","","","","","","","","","","","","","","","","","","","","","","","","","","","","","","","","","","",""
"179","","rating","html-slider-response","38","19469","0.0-1.0-35.0","1","1","0","0","","","","","","50","25","Stimuli/Experimental_stims/faces/aiony-haust-jmATI5Q_YgY-unsplash.jpg","33","","","","","","","","","","","","","","","","","","","","","","","","","","","","","","","","","","",""
"188","","rating","html-slider-response","39","19659","0.0-1.0-36.0","1","1","0","0","","","","","","50","59","Stimuli/Experimental_stims/objects/ronaldo-arthur-vidal-Cdz_lvnl37k-unsplash.jpg","34","","","","","","","","","","","","","","","","","","","","","","","","","","","","","","","","","","",""
"180","","rating","html-slider-response","40","19841","0.0-1.0-37.0","1","1","0","0","","","","","","50","21","Stimuli/Experimental_stims/outdoor_scenes/sergey-pesterev-y-b_FOmJXdg-unsplash.jpg","35","","","","","","","","","","","","","","","","","","","","","","","","","","","","","","","","","","",""
"172","","rating","html-slider-response","41","20015","0.0-1.0-38.0","1","1","0","0","","","","","","50","23","Stimuli/Experimental_stims/outdoor_scenes/yuriy-bogdanov-W51VK3Obcj0-unsplash.jpg","36","","","","","","","","","","","","","","","","","","","","","","","","","","","","","","","","","","",""
"181","","rating","html-slider-response","42","20197","0.0-1.0-39.0","1","1","0","0","","","","","","50","27","Stimuli/Experimental_stims/faces/daniel-rigdon-dXmXKPP2L4E-unsplash.jpg","37","","","","","","","","","","","","","","","","","","","","","","","","","","","","","","","","","","",""
"189","","rating","html-slider-response","43","20386","0.0-1.0-40.0","1","1","0","0","","","","","","50","47","Stimuli/Experimental_stims/body_parts/tucker-good-36skLT5jZcc-unsplash.jpg","38","","","","","","","","","","","","","","","","","","","","","","","","","","","","","","","","","","",""
"190","","rating","html-slider-response","44","20578","0.0-1.0-41.0","1","1","0","0","","","","","","50","37","Stimuli/Experimental_stims/body_parts/engin-akyurt-Q2rfH3GW39c-unsplash.jpg","39","","","","","","","","","","","","","","","","","","","","","","","","","","","","","","","","","","",""
"187","","rating","html-slider-response","45","20766","0.0-1.0-42.0","1","1","0","0","","","","","","50","32","Stimuli/Experimental_stims/faces/justin-chen-J7Cf1Gch49E-unsplash.jpg","40","","","","","","","","","","","","","","","","","","","","","","","","","","","","","","","","","","",""
"204","","rating","html-slider-response","46","20972","0.0-1.0-43.0","1","1","0","0","","","","","","50","12","Stimuli/Experimental_stims/outdoor_scenes/aleksandra-boguslawska-MS7KD9Ti7FQ-unsplash.jpg","41","","","","","","","","","","","","","","","","","","","","","","","","","","","","","","","","","","",""
"180","","rating","html-slider-response","47","21154","0.0-1.0-44.0","1","1","0","0","","","","","","50","53","Stimuli/Experimental_stims/objects/insung-yoon-w2JtIQQXoRU-unsplash.jpg","42","","","","","","","","","","","","","","","","","","","","","","","","","","","","","","","","","","",""
"180","","rating","html-slider-response","48","21335","0.0-1.0-45.0","1","1","0","0","","","","","","50","49","Stimuli/Experimental_stims/objects/alexander-andrews-VLGWE_SumrA-unsplash.jpg","43","","","","","","","","","","","","","","","","","","","","","","","","","","","","","","","","","","",""
"188","","rating","html-slider-response","49","21525","0.0-1.0-46.0","1","1","0","0","","","","","","50","46","Stimuli/Experimental_stims/body_parts/sincerely-media-VN6DbKajo5s-unsplash.jpg","44","","","","","","","","","","","","","","","","","","","","","","","","","","","","","","","","","","",""
"188","","rating","html-slider-response","50","21715","0.0-1.0-47.0","1","1","0","0","","","","","","50","52","Stimuli/Experimental_stims/objects/fabian-blank-pElSkGRA2NU-unsplash.jpg","45","","","","","","","","","","","","","","","","","","","","","","","","","","","","","","","","","","",""
"179","","rating","html-slider-response","51","21895","0.0-1.0-48.0","1","1","0","0","","","","","","50","56","Stimuli/Experimental_stims/objects/jonathan-greenaway-Y4hGgeiFn3s-unsplash.jpg","46","","","","","","","","","","","","","","","","","","","","","","","","","","","","","","","","","","",""
"205","","rating","html-slider-response","52","22102","0.0-1.0-49.0","1","1","0","0","","","","","","50","35","Stimuli/Experimental_stims/faces/rikonavt-HQjfrvdTfak-unsplash.jpg","47","","","","","","","","","","","","","","","","","","","","","","","","","","","","","","","","","","",""
"2666","","deliberation_instructions","instructions","53","24798","0.0-2.0-0.0-0.0","1","1","0","0","","","[{""page_index"":0,""viewing_time"":1227},{""page_index"":1,""viewing_time"":208},{""page_index"":2,""viewing_time"":419},{""page_index"":3,""viewing_time"":448},{""page_index"":4,""viewing_time"":364}]","","","","","","","","","","","","","","","","","","","","","","","","","","","","","","","","","","","","","","","","",""
"6959","{""Q0"":""True"",""Q1"":""True"",""Q2"":""Consider carefully and take your time (up to 10 seconds)"",""Q3"":""True"",""Q4"":""D""}","deliberation_comprehension_check","survey-multi-choice","54","31760","0.0-2.0-0.0-1.0","1","1","0","0","","","","0","","","","","","","","","","","","","","","","","","","","","","","","","","","","","","","","","","","","","","","",""
"1265","","","html-keyboard-response","55","33026","0.0-2.0-1.0","1","1","0","0","","","","","83","","","","","","","","","","","","","","","","","","","","","","","","","","","","","","","","","","","","","","",""
"938","","deliberation","html-keyboard-response","56","33966","0.0-2.0-2.0-0.0","1","1","0","0","","","","","50","","","","0","1","NA","NA","NaN","NaN","NA","NA","0","prac1","1","NaN","NaN","original","1500","0","0","NA","NA","NaN","NaN","Stimuli/Practice_stims/Deliberation/anthony-delanoix-Q0-fOL2nqZc-unsplash.jpg","Stimuli/Practice_stims/Deliberation/becca-tapert-sY5RjMB1KkE-unsplash.jpg","NA","NA","0","0.938","","","","","","","","",""
"null","","deliberation_confirmation","html-keyboard-response","57","34031","0.0-2.0-2.0-2.0-0.0","1","1","0","0","","","","","null","","","","0","","","","","","","","","","","","","","","0","","","","","","","","","","0.938","0.062","","","","","","","","",""
"null","","iti","html-keyboard-response","58","34135","0.0-2.0-2.0-4.0","1","1","0","0","","","","","null","","","","0","","","","","","","","","","","","","","","0","","","","","","","","","","1","1.5","","","","","","","","",""
"67","","deliberation","html-keyboard-response","59","34203","0.0-2.0-4.0-0.0","1","1","0","0","","","","","50","","","","1","","","","","","","","0","prac2","1","2559","left","scramble","2500","0","0","NA","NA","NaN","NaN","Stimuli/Practice_stims/Deliberation/scramble/scrambled_clay-banks-1KPfcPdbWFM-unsplash.jpg","Stimuli/Practice_stims/Deliberation/scramble/scrambled_melissa-keizer-sV4Pd8wq5_o-unsplash.jpg","NA","NA","2.5","2.559","false","2559","","","","","","",""
"183","","scramble_instruction","html-keyboard-response","60","34388","0.0-2.0-4.0-1.0-0.0","1","1","0","0","","","","","50","","","","1","1","NA","NA","NaN","NaN","","","0","","","","","","","0","","","","","","","","","","5.059","0.183","","","1","","","","","",""
"null","","deliberation_confirmation","html-keyboard-response","61","34390","0.0-2.0-4.0-2.0-0.0","1","1","0","0","","","","","null","","","","1","","","","","","","","","","","","","","","0","","","","","","","","","","188.059","-1.742","","","","","","","","",""
"null","","iti","html-keyboard-response","62","34499","0.0-2.0-4.0-4.0","1","1","0","0","","","","","null","","","","1","","","","","","","","","","","","","","","0","","","","","","","","","","186.317","2.5","","","","","","","","",""
"81","","deliberation","html-keyboard-response","63","34581","0.0-2.0-6.0-0.0","1","1","0","0","","","","","50","","","","2","","","","","","","","0","prac3","1","1450","right","scramble","3000","0","0","NA","NA","NaN","NaN","Stimuli/Practice_stims/Deliberation/scramble/scrambled_anthony-delanoix-Q0-fOL2nqZc-unsplash.jpg","Stimuli/Practice_stims/Deliberation/scramble/scrambled_becca-tapert-sY5RjMB1KkE-unsplash.jpg","NA","NA","188.817","1.45","false","1450","","","","","","",""
"189","","scramble_instruction","html-keyboard-response","64","34772","0.0-2.0-6.0-1.0-0.0","1","1","0","0","","","","","50","","","","2","1","NA","NA","NaN","NaN","","","0","","","","","","","0","","","","","","","","","","190.267","0.189","","","0","","","","","",""
"null","","deliberation_confirmation","html-keyboard-response","65","34774","0.0-2.0-6.0-2.0-0.0","1","1","0","0","","","","","null","","","","2","","","","","","","","","","","","","","","0","","","","","","","","","","379.267","-0.639","","","","","","","","",""
"null","","iti","html-keyboard-response","66","34879","0.0-2.0-6.0-4.0","1","1","0","0","","","","","null","","","","2","","","","","","","","","","","","","","","0","","","","","","","","","","378.628","3","","","","","","","","",""
"84","","deliberation","html-keyboard-response","67","34965","0.0-2.0-8.0-0.0","1","1","0","0","","","","","50","","","","3","1","NA","NA","NaN","NaN","NA","NA","0","prac4","1","NaN","NaN","original","2000","0","0","NA","NA","NaN","NaN","Stimuli/Practice_stims/Deliberation/clay-banks-1KPfcPdbWFM-unsplash.jpg","Stimuli/Practice_stims/Deliberation/melissa-keizer-sV4Pd8wq5_o-unsplash.jpg","NA","NA","381.628","0.084","","","","","","","","",""
"null","","deliberation_confirmation","html-keyboard-response","68","35890","0.0-2.0-8.0-2.0-0.0","1","1","0","0","","","","","null","","","","3","","","","","","","","","","","","","","","0","","","","","","","","","","381.712","0.916","","","","","","","","",""
"null","","iti","html-keyboard-response","69","36003","0.0-2.0-8.0-4.0","1","1","0","0","","","","","null","","","","3","","","","","","","","","","","","","","","0","","","","","","","","","","382.628","2","","","","","","","","",""
"2367","","practice_over","html-keyboard-response","70","38372","0.0-2.0-8.0-5.0-0.0","1","1","0","0","","","","","83","","","","3","","","","","","","","","","","","","","","","","","","","","","","","","","","","","","","","","","",""
"874","","start_run","html-keyboard-response","71","39246","0.0-2.0-8.0-5.0-1.0","1","1","0","0","","","","","84","","","","","","","","","","","","","","","","","","","","","","","","","","","","","","","","","","","","","","",""
"129","","deliberation","html-keyboard-response","72","39377","0.0-2.0-10.0-0.0","1","1","0","0","","","","","50","","","","4","","","","","","","","0","B","0","1881","left","scramble","1000","1","1","17","29","outdoor_scenes","faces","Stimuli/Experimental_stims/scramble/outdoor_scenes/scrambled_jeff-king-bJHWJeiHfHc-unsplash.jpg","Stimuli/Experimental_stims/scramble/faces/scrambled_freddy-kearney-o-ioeoATbIM-unsplash.jpg","NaN","NaN","0","1.881","false","1881","","","","","","",""
"197","","scramble_instruction","html-keyboard-response","73","39576","0.0-2.0-10.0-1.0-0.0","1","1","0","0","","","","","50","","","","4","1","17","29","outdoor_scenes","faces","","","0","","","","","","","1","","","","","","","","","","1.881","0.197","","","1","","","","","",""
"null","","deliberation_confirmation","html-keyboard-response","74","39578","0.0-2.0-10.0-2.0-0.0","1","1","0","0","","","","","null","","","","4","","","","","","","","","","","","","","","1","","","","","","","","","","198.881","-1.078","","","","","","","","",""
"null","","iti","html-keyboard-response","75","39681","0.0-2.0-10.0-4.0","1","1","0","0","","","","","null","","","","4","","","","","","","","","","","","","","","1","","","","","","","","","","197.803","1","","","","","","","","",""
"90","","deliberation","html-keyboard-response","76","39773","0.0-2.0-12.0-0.0","1","1","0","0","","","","","50","","","","5","","","","","","","","0","F","0","1926","right","scramble","2000","1","1","28","47","faces","body_parts","Stimuli/Experimental_stims/scramble/faces/scrambled_erik-lucatero-d2MSDujJl2g-unsplash.jpg","Stimuli/Experimental_stims/scramble/body_parts/scrambled_tucker-good-36skLT5jZcc-unsplash.jpg","NaN","NaN","198.803","1.926","false","1926","","","","","","",""
"194","","scramble_instruction","html-keyboard-response","77","39967","0.0-2.0-12.0-1.0-0.0","1","1","0","0","","","","","50","","","","5","1","28","47","faces","body_parts","","","0","","","","","","","1","","","","","","","","","","200.72899999999998","0.194","","","0","","","","","",""
"null","","deliberation_confirmation","html-keyboard-response","78","39969","0.0-2.0-12.0-2.0-0.0","1","1","0","0","","","","","null","","","","5","","","","","","","","","","","","","","","1","","","","","","","","","","394.729","-1.12","","","","","","","","",""
"null","","iti","html-keyboard-response","79","40072","0.0-2.0-12.0-4.0","1","1","0","0","","","","","null","","","","5","","","","","","","","","","","","","","","1","","","","","","","","","","393.609","2","","","","","","","","",""
"81","","deliberation","html-keyboard-response","80","40154","0.0-2.0-14.0-0.0","1","1","0","0","","","","","50","","","","6","1","46","26","body_parts","faces","50","50","0","L","0","NaN","NaN","original","1500","1","1","46","26","body_parts","faces","Stimuli/Experimental_stims/body_parts/sincerely-media-VN6DbKajo5s-unsplash.jpg","Stimuli/Experimental_stims/faces/art-hauntington-jzY0KRJopEI-unsplash.jpg","50","50","395.609","0.081","","","","","","","","",""
"null","","deliberation_confirmation","html-keyboard-response","81","41079","0.0-2.0-14.0-2.0-0.0","1","1","0","0","","","","","null","","","","6","","","","","","","","","","","","","","","1","","","","","","","","","","395.69","0.919","","","","","","","","",""
"null","","iti","html-keyboard-response","82","41187","0.0-2.0-14.0-4.0","1","1","0","0","","","","","null","","","","6","","","","","","","","","","","","","","","1","","","","","","","","","","396.609","1.5","","","","","","","","",""
"100","","deliberation","html-keyboard-response","83","41288","0.0-2.0-16.0-0.0","1","1","0","0","","","","","50","","","","7","1","51","41","objects","body_parts","50","50","0","E","0","NaN","NaN","original","1000","1","1","51","41","objects","body_parts","Stimuli/Experimental_stims/objects/art-lasovsky-8XddFc6NkBY-unsplash.jpg","Stimuli/Experimental_stims/body_parts/lucaxx-freire-CacZwMexYdk-unsplash.jpg","50","50","398.109","0.1","","","","","","","","",""
"null","","deliberation_confirmation","html-keyboard-response","84","42193","0.0-2.0-16.0-2.0-0.0","1","1","0","0","","","","","null","","","","7","","","","","","","","","","","","","","","1","","","","","","","","","","398.209","0.9","","","","","","","","",""
"null","","iti","html-keyboard-response","85","42299","0.0-2.0-16.0-4.0","1","1","0","0","","","","","null","","","","7","","","","","","","","","","","","","","","1","","","","","","","","","","399.109","1","","","","","","","","",""
"29","","deliberation","html-keyboard-response","86","42330","0.0-2.0-18.0-0.0","1","1","0","0","","","","","50","","","","8","1","17","29","outdoor_scenes","faces","50","50","0","B","0","NaN","NaN","original","1000","1","1","17","29","outdoor_scenes","faces","Stimuli/Experimental_stims/outdoor_scenes/jeff-king-bJHWJeiHfHc-unsplash.jpg","Stimuli/Experimental_stims/faces/freddy-kearney-o-ioeoATbIM-unsplash.jpg","50","50","400.109","0.029","","","","","","","","",""
"null","","deliberation_confirmation","html-keyboard-response","87","43315","0.0-2.0-18.0-2.0-0.0","1","1","0","0","","","","","null","","","","8","","","","","","","","","","","","","","","1","","","","","","","","","","400.138","0.971","","","","","","","","",""
"null","","iti","html-keyboard-response","88","43426","0.0-2.0-18.0-4.0","1","1","0","0","","","","","null","","","","8","","","","","","","","","","","","","","","1","","","","","","","","","","401.109","1","","","","","","","","",""
"86","","deliberation","html-keyboard-response","89","43514","0.0-2.0-20.0-0.0","1","1","0","0","","","","","50","","","","9","","","","","","","","0","C","0","996","left","scramble","3000","1","1","19","42","outdoor_scenes","body_parts","Stimuli/Experimental_stims/scramble/outdoor_scenes/scrambled_petr-vysohlid-9fqwGqGLUxc-unsplash.jpg","Stimuli/Experimental_stims/scramble/body_parts/scrambled_lucrezia-carnelos-kn6QrWtnAtY-unsplash.jpg","NaN","NaN","402.109","0.996","false","996","","","","","","",""
"257","","scramble_instruction","html-keyboard-response","90","43773","0.0-2.0-20.0-1.0-0.0","1","1","0","0","","","","","50","","","","9","1","19","42","outdoor_scenes","body_parts","","","0","","","","","","","1","","","","","","","","","","403.10499999999996","0.257","","","1","","","","","",""
"null","","deliberation_confirmation","html-keyboard-response","91","43775","0.0-2.0-20.0-2.0-0.0","1","1","0","0","","","","","null","","","","9","","","","","","","","","","","","","","","1","","","","","","","","","","660.105","-0.253","","","","","","","","",""
"null","","iti","html-keyboard-response","92","43881","0.0-2.0-20.0-4.0","1","1","0","0","","","","","null","","","","9","","","","","","","","","","","","","","","1","","","","","","","","","","659.852","3","","","","","","","","",""
"167","","deliberation","html-keyboard-response","93","44050","0.0-2.0-22.0-0.0","1","1","0","0","","","","","50","","","","10","","","","","","","","0","D","0","1815","left","scramble","1000","1","1","52","24","objects","faces","Stimuli/Experimental_stims/scramble/objects/scrambled_fabian-blank-pElSkGRA2NU-unsplash.jpg","Stimuli/Experimental_stims/scramble/faces/scrambled_abstral-official-cyOKLSgkgCE-unsplash.jpg","NaN","NaN","662.852","1.815","false","1815","","","","","","",""
"269","","scramble_instruction","html-keyboard-response","94","44319","0.0-2.0-22.0-1.0-0.0","1","1","0","0","","","","","50","","","","10","1","52","24","objects","faces","","","0","","","","","","","1","","","","","","","","","","664.667","0.269","","","1","","","","","",""
"null","","deliberation_confirmation","html-keyboard-response","95","44321","0.0-2.0-22.0-2.0-0.0","1","1","0","0","","","","","null","","","","10","","","","","","","","","","","","","","","1","","","","","","","","","","933.667","-1.084","","","","","","","","",""
"null","","iti","html-keyboard-response","96","44424","0.0-2.0-22.0-4.0","1","1","0","0","","","","","null","","","","10","","","","","","","","","","","","","","","1","","","","","","","","","","932.5830000000001","1","","","","","","","","",""
"150","","deliberation","html-keyboard-response","97","44576","0.0-2.0-24.0-0.0","1","1","0","0","","","","","50","","","","11","1","19","42","outdoor_scenes","body_parts","50","50","0","C","0","NaN","NaN","original","3500","1","1","19","42","outdoor_scenes","body_parts","Stimuli/Experimental_stims/outdoor_scenes/petr-vysohlid-9fqwGqGLUxc-unsplash.jpg","Stimuli/Experimental_stims/body_parts/lucrezia-carnelos-kn6QrWtnAtY-unsplash.jpg","50","50","933.5830000000001","0.15","","","","","","","","",""
"null","","deliberation_confirmation","html-keyboard-response","98","45430","0.0-2.0-24.0-2.0-0.0","1","1","0","0","","","","","null","","","","11","","","","","","","","","","","","","","","1","","","","","","","","","","933.7330000000001","0.85","","","","","","","","",""
"null","","iti","html-keyboard-response","99","45539","0.0-2.0-24.0-4.0","1","1","0","0","","","","","null","","","","11","","","","","","","","","","","","","","","1","","","","","","","","","","934.5830000000001","3.5","","","","","","","","",""
"154","","deliberation","html-keyboard-response","100","45695","0.0-2.0-26.0-0.0","1","1","0","0","","","","","50","","","","12","1","28","47","faces","body_parts","50","50","0","F","0","NaN","NaN","original","1000","1","1","28","47","faces","body_parts","Stimuli/Experimental_stims/faces/erik-lucatero-d2MSDujJl2g-unsplash.jpg","Stimuli/Experimental_stims/body_parts/tucker-good-36skLT5jZcc-unsplash.jpg","50","50","938.0830000000001","0.154","","","","","","","","",""
"null","","deliberation_confirmation","html-keyboard-response","101","46544","0.0-2.0-26.0-2.0-0.0","1","1","0","0","","","","","null","","","","12","","","","","","","","","","","","","","","1","","","","","","","","","","938.2370000000001","0.846","","","","","","","","",""
"null","","iti","html-keyboard-response","102","46649","0.0-2.0-26.0-4.0","1","1","0","0","","","","","null","","","","12","","","","","","","","","","","","","","","1","","","","","","","","","","939.0830000000001","1","","","","","","","","",""
"54","","deliberation","html-keyboard-response","103","46704","0.0-2.0-28.0-0.0","1","1","0","0","","","","","50","","","","13","","","","","","","","0","L","0","1302","right","scramble","1000","1","1","46","26","body_parts","faces","Stimuli/Experimental_stims/scramble/body_parts/scrambled_sincerely-media-VN6DbKajo5s-unsplash.jpg","Stimuli/Experimental_stims/scramble/faces/scrambled_art-hauntington-jzY0KRJopEI-unsplash.jpg","NaN","NaN","940.0830000000001","1.302","false","1302","","","","","","",""
"194","","scramble_instruction","html-keyboard-response","104","46900","0.0-2.0-28.0-1.0-0.0","1","1","0","0","","","","","50","","","","13","1","46","26","body_parts","faces","","","0","","","","","","","1","","","","","","","","","","941.3850000000001","0.194","","","0","","","","","",""
"null","","deliberation_confirmation","html-keyboard-response","105","46902","0.0-2.0-28.0-2.0-0.0","1","1","0","0","","","","","null","","","","13","","","","","","","","","","","","","","","1","","","","","","","","","","1135.3850000000002","-0.496","","","","","","","","",""
"null","","iti","html-keyboard-response","106","47006","0.0-2.0-28.0-4.0","1","1","0","0","","","","","null","","","","13","","","","","","","","","","","","","","","1","","","","","","","","","","1134.8890000000001","1","","","","","","","","",""
"237","","deliberation","html-keyboard-response","107","47245","0.0-2.0-30.0-0.0","1","1","0","0","","","","","50","","","","14","1","21","58","outdoor_scenes","objects","50","50","0","A","0","NaN","NaN","original","2000","1","1","21","58","outdoor_scenes","objects","Stimuli/Experimental_stims/outdoor_scenes/sergey-pesterev-y-b_FOmJXdg-unsplash.jpg","Stimuli/Experimental_stims/objects/mockup-graphics-PNsj6RiHAF4-unsplash.jpg","50","50","1135.8890000000001","0.237","","","","","","","","",""
"null","","deliberation_confirmation","html-keyboard-response","108","48019","0.0-2.0-30.0-2.0-0.0","1","1","0","0","","","","","null","","","","14","","","","","","","","","","","","","","","1","","","","","","","","","","1136.1260000000002","0.763","","","","","","","","",""
"null","","iti","html-keyboard-response","109","48128","0.0-2.0-30.0-4.0","1","1","0","0","","","","","null","","","","14","","","","","","","","","","","","","","","1","","","","","","","","","","1136.8890000000001","2","","","","","","","","",""
"null","","deliberation","html-keyboard-response","110","49136","0.0-2.0-32.0-0.0","1","1","0","0","","","","","null","","","","15","","","","","","","","1","K","0","1615","right","scramble","3500","1","1","37","56","body_parts","objects","Stimuli/Experimental_stims/scramble/body_parts/scrambled_engin-akyurt-Q2rfH3GW39c-unsplash.jpg","Stimuli/Experimental_stims/scramble/objects/scrambled_jonathan-greenaway-Y4hGgeiFn3s-unsplash.jpg","NaN","NaN","1138.8890000000001","1.615","false","1615","","","","","","",""
"null","","scramble_instruction","html-keyboard-response","111","50145","0.0-2.0-32.0-1.0-0.0","1","1","0","0","","","","","null","","","","15","","","","","","","","1","","","","","","","1","","","","","","","","","","1140.5040000000001","1","","","0","","","","","",""
"null","","deliberation_no_response","html-keyboard-response","112","50656","0.0-2.0-32.0-3.0-0.0","1","1","0","0","","","","","null","","","","15","","","","","","","","1","","","","","","","1","","","","","","","","","","2140.504","0.5","","","","","","","","",""
"null","","iti","html-keyboard-response","113","50759","0.0-2.0-32.0-4.0","1","1","0","0","","","","","null","","","","15","","","","","","","","","","","","","","","1","","","","","","","","","","2141.004","3","","","","","","","","",""
"null","","deliberation","html-keyboard-response","114","51771","0.0-2.0-34.0-0.0","1","1","0","0","","","","","null","","","","16","","","","","","","","1","E","0","285","right","scramble","1500","1","1","51","41","objects","body_parts","Stimuli/Experimental_stims/scramble/objects/scrambled_art-lasovsky-8XddFc6NkBY-unsplash.jpg","Stimuli/Experimental_stims/scramble/body_parts/scrambled_lucaxx-freire-CacZwMexYdk-unsplash.jpg","NaN","NaN","2144.004","0.285","false","285","","","","","","",""
"null","","scramble_instruction","html-keyboard-response","115","52777","0.0-2.0-34.0-1.0-0.0","1","1","0","0","","","","","null","","","","16","","","","","","","","1","","","","","","","1","","","","","","","","","","2144.2889999999998","1","","","0","","","","","",""
"null","","deliberation_no_response","html-keyboard-response","116","53288","0.0-2.0-34.0-3.0-0.0","1","1","0","0","","","","","null","","","","16","","","","","","","","1","","","","","","","1","","","","","","","","","","3144.2889999999998","0.5","","","","","","","","",""
"null","","iti","html-keyboard-response","117","53390","0.0-2.0-34.0-4.0","1","1","0","0","","","","","null","","","","16","","","","","","","","","","","","","","","1","","","","","","","","","","3144.7889999999998","1","","","","","","","","",""
"null","","deliberation","html-keyboard-response","118","54398","0.0-2.0-36.0-0.0","1","1","0","0","","","","","null","","","","17","","","","","","","","1","G","0","NaN","NaN","original","1500","1","1","53","20","objects","outdoor_scenes","Stimuli/Experimental_stims/objects/insung-yoon-w2JtIQQXoRU-unsplash.jpg","Stimuli/Experimental_stims/outdoor_scenes/samsommer-vddccTqwal8-unsplash.jpg","50","50","3145.7889999999998","1","","","","","","","","",""
"null","","deliberation_no_response","html-keyboard-response","119","54902","0.0-2.0-36.0-3.0-0.0","1","1","0","0","","","","","null","","","","17","","","","","","","","1","","","","","","","1","","","","","","","","","","3146.7889999999998","0.5","","","","","","","","",""
"null","","iti","html-keyboard-response","120","55009","0.0-2.0-36.0-4.0","1","1","0","0","","","","","null","","","","17","","","","","","","","","","","","","","","1","","","","","","","","","","3147.2889999999998","1","","","","","","","","",""
"null","","deliberation","html-keyboard-response","121","56017","0.0-2.0-38.0-0.0","1","1","0","0","","","","","null","","","","18","","","","","","","","1","I","0","NaN","NaN","original","3000","1","1","36","16","body_parts","outdoor_scenes","Stimuli/Experimental_stims/body_parts/callum-skelton-3KLMq7y46nA-unsplash.jpg","Stimuli/Experimental_stims/outdoor_scenes/jarrett-kow-1ZOyYPOBn7I-unsplash.jpg","50","50","3148.2889999999998","1","","","","","","","","",""
"null","","deliberation_no_response","html-keyboard-response","122","56527","0.0-2.0-38.0-3.0-0.0","1","1","0","0","","","","","null","","","","18","","","","","","","","1","","","","","","","1","","","","","","","","","","3149.2889999999998","0.5","","","","","","","","",""
"null","","iti","html-keyboard-response","123","56631","0.0-2.0-38.0-4.0","1","1","0","0","","","","","null","","","","18","","","","","","","","","","","","","","","1","","","","","","","","","","3149.7889999999998","2.5","","","","","","","","",""
"202","","deliberation","html-keyboard-response","124","56835","0.0-2.0-40.0-0.0","1","1","0","0","","","","","50","","","","19","","","","","","","","0","A","0","1137","right","scramble","3000","1","1","21","58","outdoor_scenes","objects","Stimuli/Experimental_stims/scramble/outdoor_scenes/scrambled_sergey-pesterev-y-b_FOmJXdg-unsplash.jpg","Stimuli/Experimental_stims/scramble/objects/scrambled_mockup-graphics-PNsj6RiHAF4-unsplash.jpg","NaN","NaN","3152.2889999999998","1.137","false","1137","","","","","","",""
"215","","scramble_instruction","html-keyboard-response","125","57052","0.0-2.0-40.0-1.0-0.0","1","1","0","0","","","","","50","","","","19","1","21","58","outdoor_scenes","objects","","","0","","","","","","","1","","","","","","","","","","3153.426","0.215","","","0","","","","","",""
"null","","deliberation_confirmation","html-keyboard-response","126","57054","0.0-2.0-40.0-2.0-0.0","1","1","0","0","","","","","null","","","","19","","","","","","","","","","","","","","","1","","","","","","","","","","3368.426","-0.352","","","","","","","","",""
"null","","iti","html-keyboard-response","127","57162","0.0-2.0-40.0-4.0","1","1","0","0","","","","","null","","","","19","","","","","","","","","","","","","","","1","","","","","","","","","","3368.074","3","","","","","","","","",""
"104","","deliberation","html-keyboard-response","128","57268","0.0-2.0-42.0-0.0","1","1","0","0","","","","","50","","","","20","","","","","","","","0","G","0","1994","left","scramble","1500","1","1","53","20","objects","outdoor_scenes","Stimuli/Experimental_stims/scramble/objects/scrambled_insung-yoon-w2JtIQQXoRU-unsplash.jpg","Stimuli/Experimental_stims/scramble/outdoor_scenes/scrambled_samsommer-vddccTqwal8-unsplash.jpg","NaN","NaN","3371.074","1.994","false","1994","","","","","","",""
"200","","scramble_instruction","html-keyboard-response","129","57470","0.0-2.0-42.0-1.0-0.0","1","1","0","0","","","","","50","","","","20","1","53","20","objects","outdoor_scenes","","","0","","","","","","","1","","","","","","","","","","3373.068","0.2","","","1","","","","","",""
"null","","deliberation_confirmation","html-keyboard-response","130","57472","0.0-2.0-42.0-2.0-0.0","1","1","0","0","","","","","null","","","","20","","","","","","","","","","","","","","","1","","","","","","","","","","3573.068","-1.194","","","","","","","","",""
"null","","iti","html-keyboard-response","131","57574","0.0-2.0-42.0-4.0","1","1","0","0","","","","","null","","","","20","","","","","","","","","","","","","","","1","","","","","","","","","","3571.8740000000003","1.5","","","","","","","","",""
"98","","deliberation","html-keyboard-response","132","57674","0.0-2.0-44.0-0.0","1","1","0","0","","","","","50","","","","21","1","37","56","body_parts","objects","50","50","0","K","0","NaN","NaN","original","1000","1","1","37","56","body_parts","objects","Stimuli/Experimental_stims/body_parts/engin-akyurt-Q2rfH3GW39c-unsplash.jpg","Stimuli/Experimental_stims/objects/jonathan-greenaway-Y4hGgeiFn3s-unsplash.jpg","50","50","3573.3740000000003","0.098","","","","","","","","",""
"null","","deliberation_confirmation","html-keyboard-response","133","58585","0.0-2.0-44.0-2.0-0.0","1","1","0","0","","","","","null","","","","21","","","","","","","","","","","","","","","1","","","","","","","","","","3573.472","0.902","","","","","","","","",""
"null","","iti","html-keyboard-response","134","58695","0.0-2.0-44.0-4.0","1","1","0","0","","","","","null","","","","21","","","","","","","","","","","","","","","1","","","","","","","","","","3574.3740000000003","1","","","","","","","","",""
"105","","deliberation","html-keyboard-response","135","58802","0.0-2.0-46.0-0.0","1","1","0","0","","","","","50","","","","22","1","34","57","faces","objects","50","50","0","J","0","NaN","NaN","original","3000","1","1","34","57","faces","objects","Stimuli/Experimental_stims/faces/olena-sergienko-0TSd6uCKTKc-unsplash.jpg","Stimuli/Experimental_stims/objects/kuiye-chen-NuOGFo4PudE-unsplash.jpg","50","50","3575.3740000000003","0.105","","","","","","","","",""
"null","","deliberation_confirmation","html-keyboard-response","136","59702","0.0-2.0-46.0-2.0-0.0","1","1","0","0","","","","","null","","","","22","","","","","","","","","","","","","","","1","","","","","","","","","","3575.4790000000003","0.895","","","","","","","","",""
"null","","iti","html-keyboard-response","137","59808","0.0-2.0-46.0-4.0","1","1","0","0","","","","","null","","","","22","","","","","","","","","","","","","","","1","","","","","","","","","","3576.3740000000003","3","","","","","","","","",""
"75","","deliberation","html-keyboard-response","138","59885","0.0-2.0-48.0-0.0","1","1","0","0","","","","","50","","","","23","","","","","","","","0","J","0","1604","left","scramble","1000","1","1","34","57","faces","objects","Stimuli/Experimental_stims/scramble/faces/scrambled_olena-sergienko-0TSd6uCKTKc-unsplash.jpg","Stimuli/Experimental_stims/scramble/objects/scrambled_kuiye-chen-NuOGFo4PudE-unsplash.jpg","NaN","NaN","3579.3740000000003","1.604","false","1604","","","","","","",""
"216","","scramble_instruction","html-keyboard-response","139","60103","0.0-2.0-48.0-1.0-0.0","1","1","0","0","","","","","50","","","","23","1","34","57","faces","objects","","","0","","","","","","","1","","","","","","","","","","3580.978","0.216","","","1","","","","","",""
"null","","deliberation_confirmation","html-keyboard-response","140","60105","0.0-2.0-48.0-2.0-0.0","1","1","0","0","","","","","null","","","","23","","","","","","","","","","","","","","","1","","","","","","","","","","3796.978","-0.82","","","","","","","","",""
"null","","iti","html-keyboard-response","141","60207","0.0-2.0-48.0-4.0","1","1","0","0","","","","","null","","","","23","","","","","","","","","","","","","","","1","","","","","","","","","","3796.158","1","","","","","","","","",""
"107","","deliberation","html-keyboard-response","142","60316","0.0-2.0-50.0-0.0","1","1","0","0","","","","","50","","","","24","1","25","22","faces","outdoor_scenes","50","50","0","H","0","NaN","NaN","original","2000","1","1","25","22","faces","outdoor_scenes","Stimuli/Experimental_stims/faces/aiony-haust-jmATI5Q_YgY-unsplash.jpg","Stimuli/Experimental_stims/outdoor_scenes/stephen-leonardi-gyIRjKPXupE-unsplash.jpg","50","50","3797.158","0.107","","","","","","","","",""
"null","","deliberation_confirmation","html-keyboard-response","143","61215","0.0-2.0-50.0-2.0-0.0","1","1","0","0","","","","","null","","","","24","","","","","","","","","","","","","","","1","","","","","","","","","","3797.265","0.893","","","","","","","","",""
"null","","iti","html-keyboard-response","144","61323","0.0-2.0-50.0-4.0","1","1","0","0","","","","","null","","","","24","","","","","","","","","","","","","","","1","","","","","","","","","","3798.158","2","","","","","","","","",""
"109","","deliberation","html-keyboard-response","145","61434","0.0-2.0-52.0-0.0","1","1","0","0","","","","","50","","","","25","","","","","","","","0","I","0","1489","left","scramble","1500","1","1","36","16","body_parts","outdoor_scenes","Stimuli/Experimental_stims/scramble/body_parts/scrambled_callum-skelton-3KLMq7y46nA-unsplash.jpg","Stimuli/Experimental_stims/scramble/outdoor_scenes/scrambled_jarrett-kow-1ZOyYPOBn7I-unsplash.jpg","NaN","NaN","3800.158","1.489","false","1489","","","","","","",""
"222","","scramble_instruction","html-keyboard-response","146","61657","0.0-2.0-52.0-1.0-0.0","1","1","0","0","","","","","50","","","","25","1","36","16","body_parts","outdoor_scenes","","","0","","","","","","","1","","","","","","","","","","3801.647","0.222","","","1","","","","","",""
"null","","deliberation_confirmation","html-keyboard-response","147","61659","0.0-2.0-52.0-2.0-0.0","1","1","0","0","","","","","null","","","","25","","","","","","","","","","","","","","","1","","","","","","","","","","4023.647","-0.711","","","","","","","","",""
"null","","iti","html-keyboard-response","148","61762","0.0-2.0-52.0-4.0","1","1","0","0","","","","","null","","","","25","","","","","","","","","","","","","","","1","","","","","","","","","","4022.936","1.5","","","","","","","","",""
"115","","deliberation","html-keyboard-response","149","61880","0.0-2.0-54.0-0.0","1","1","0","0","","","","","50","","","","26","1","52","24","objects","faces","50","50","0","D","0","NaN","NaN","original","1500","1","1","52","24","objects","faces","Stimuli/Experimental_stims/objects/fabian-blank-pElSkGRA2NU-unsplash.jpg","Stimuli/Experimental_stims/faces/abstral-official-cyOKLSgkgCE-unsplash.jpg","50","50","4024.436","0.115","","","","","","","","",""
"null","","deliberation_confirmation","html-keyboard-response","150","62776","0.0-2.0-54.0-2.0-0.0","1","1","0","0","","","","","null","","","","26","","","","","","","","","","","","","","","1","","","","","","","","","","4024.551","0.885","","","","","","","","",""
"null","","iti","html-keyboard-response","151","62881","0.0-2.0-54.0-4.0","1","1","0","0","","","","","null","","","","26","","","","","","","","","","","","","","","1","","","","","","","","","","4025.436","1.5","","","","","","","","",""
"221","","deliberation","html-keyboard-response","152","63104","0.0-2.0-56.0-0.0","1","1","0","0","","","","","50","","","","27","","","","","","","","0","H","0","1143","right","scramble","2000","1","1","25","22","faces","outdoor_scenes","Stimuli/Experimental_stims/scramble/faces/scrambled_aiony-haust-jmATI5Q_YgY-unsplash.jpg","Stimuli/Experimental_stims/scramble/outdoor_scenes/scrambled_stephen-leonardi-gyIRjKPXupE-unsplash.jpg","NaN","NaN","4026.936","1.143","false","1143","","","","","","",""
"227","","scramble_instruction","html-keyboard-response","153","63332","0.0-2.0-56.0-1.0-0.0","1","1","0","0","","","","","50","","","","27","1","25","22","faces","outdoor_scenes","","","0","","","","","","","1","","","","","","","","","","4028.079","0.227","","","0","","","","","",""
"null","","deliberation_confirmation","html-keyboard-response","154","63334","0.0-2.0-56.0-2.0-0.0","1","1","0","0","","","","","null","","","","27","","","","","","","","","","","","","","","1","","","","","","","","","","4255.079","-0.37","","","","","","","","",""
"null","","iti","html-keyboard-response","155","63440","0.0-2.0-56.0-4.0","1","1","0","0","","","","","null","","","","27","","","","","","","","","","","","","","","1","","","","","","","","","","4254.709","2","","","","","","","","",""
"144","","deliberation","html-keyboard-response","156","63586","0.0-2.0-58.0-0.0","1","1","0","0","","","","","50","","","","28","1","36","16","body_parts","outdoor_scenes","50","50","0","I","0","NaN","NaN","original","2000","2","1","36","16","body_parts","outdoor_scenes","Stimuli/Experimental_stims/body_parts/callum-skelton-3KLMq7y46nA-unsplash.jpg","Stimuli/Experimental_stims/outdoor_scenes/jarrett-kow-1ZOyYPOBn7I-unsplash.jpg","50","50","4256.709","0.144","","","","","","","","",""
"null","","deliberation_confirmation","html-keyboard-response","157","64448","0.0-2.0-58.0-2.0-0.0","1","1","0","0","","","","","null","","","","28","","","","","","","","","","","","","","","2","","","","","","","","","","4256.853","0.856","","","","","","","","",""
"null","","iti","html-keyboard-response","158","64550","0.0-2.0-58.0-4.0","1","1","0","0","","","","","null","","","","28","","","","","","","","","","","","","","","2","","","","","","","","","","4257.709","2","","","","","","","","",""
"165","","deliberation","html-keyboard-response","159","64717","0.0-2.0-60.0-0.0","1","1","0","0","","","","","50","","","","29","1","37","56","body_parts","objects","50","50","0","K","0","NaN","NaN","original","1500","2","1","37","56","body_parts","objects","Stimuli/Experimental_stims/body_parts/engin-akyurt-Q2rfH3GW39c-unsplash.jpg","Stimuli/Experimental_stims/objects/jonathan-greenaway-Y4hGgeiFn3s-unsplash.jpg","50","50","4259.709","0.165","","","","","","","","",""
"null","","deliberation_confirmation","html-keyboard-response","160","65560","0.0-2.0-60.0-2.0-0.0","1","1","0","0","","","","","null","","","","29","","","","","","","","","","","","","","","2","","","","","","","","","","4259.874","0.835","","","","","","","","",""
"null","","iti","html-keyboard-response","161","65666","0.0-2.0-60.0-4.0","1","1","0","0","","","","","null","","","","29","","","","","","","","","","","","","","","2","","","","","","","","","","4260.709","1.5","","","","","","","","",""
"42","","deliberation","html-keyboard-response","162","65709","0.0-2.0-62.0-0.0","1","1","0","0","","","","","50","","","","30","1","53","20","objects","outdoor_scenes","50","50","0","G","0","NaN","NaN","original","1000","2","1","53","20","objects","outdoor_scenes","Stimuli/Experimental_stims/objects/insung-yoon-w2JtIQQXoRU-unsplash.jpg","Stimuli/Experimental_stims/outdoor_scenes/samsommer-vddccTqwal8-unsplash.jpg","50","50","4262.209","0.042","","","","","","","","",""
"null","","deliberation_confirmation","html-keyboard-response","163","66671","0.0-2.0-62.0-2.0-0.0","1","1","0","0","","","","","null","","","","30","","","","","","","","","","","","","","","2","","","","","","","","","","4262.251","0.958","","","","","","","","",""
"null","","iti","html-keyboard-response","164","66775","0.0-2.0-62.0-4.0","1","1","0","0","","","","","null","","","","30","","","","","","","","","","","","","","","2","","","","","","","","","","4263.209","1","","","","","","","","",""
"64","","deliberation","html-keyboard-response","165","66841","0.0-2.0-64.0-0.0","1","1","0","0","","","","","50","","","","31","1","17","29","outdoor_scenes","faces","50","50","0","B","0","NaN","NaN","original","1000","2","1","17","29","outdoor_scenes","faces","Stimuli/Experimental_stims/outdoor_scenes/jeff-king-bJHWJeiHfHc-unsplash.jpg","Stimuli/Experimental_stims/faces/freddy-kearney-o-ioeoATbIM-unsplash.jpg","50","50","4264.209","0.064","","","","","","","","",""
"null","","deliberation_confirmation","html-keyboard-response","166","67785","0.0-2.0-64.0-2.0-0.0","1","1","0","0","","","","","null","","","","31","","","","","","","","","","","","","","","2","","","","","","","","","","4264.273","0.936","","","","","","","","",""
"null","","iti","html-keyboard-response","167","67898","0.0-2.0-64.0-4.0","1","1","0","0","","","","","null","","","","31","","","","","","","","","","","","","","","2","","","","","","","","","","4265.209","1","","","","","","","","",""
"219","","deliberation","html-keyboard-response","168","68118","0.0-2.0-66.0-0.0","1","1","0","0","","","","","50","","","","32","1","51","41","objects","body_parts","50","50","0","E","0","NaN","NaN","original","1000","2","1","51","41","objects","body_parts","Stimuli/Experimental_stims/objects/art-lasovsky-8XddFc6NkBY-unsplash.jpg","Stimuli/Experimental_stims/body_parts/lucaxx-freire-CacZwMexYdk-unsplash.jpg","50","50","4266.209","0.219","","","","","","","","",""
"null","","deliberation_confirmation","html-keyboard-response","169","68902","0.0-2.0-66.0-2.0-0.0","1","1","0","0","","","","","null","","","","32","","","","","","","","","","","","","","","2","","","","","","","","","","4266.428","0.781","","","","","","","","",""
"null","","iti","html-keyboard-response","170","69007","0.0-2.0-66.0-4.0","1","1","0","0","","","","","null","","","","32","","","","","","","","","","","","","","","2","","","","","","","","","","4267.209","1","","","","","","","","",""
"238","","deliberation","html-keyboard-response","171","69246","0.0-2.0-68.0-0.0","1","1","0","0","","","","","50","","","","33","1","21","58","outdoor_scenes","objects","50","50","0","A","0","NaN","NaN","original","3000","2","1","21","58","outdoor_scenes","objects","Stimuli/Experimental_stims/outdoor_scenes/sergey-pesterev-y-b_FOmJXdg-unsplash.jpg","Stimuli/Experimental_stims/objects/mockup-graphics-PNsj6RiHAF4-unsplash.jpg","50","50","4268.209","0.238","","","","","","","","",""
"null","","deliberation_confirmation","html-keyboard-response","172","70017","0.0-2.0-68.0-2.0-0.0","1","1","0","0","","","","","null","","","","33","","","","","","","","","","","","","","","2","","","","","","","","","","4268.447","0.762","","","","","","","","",""
"null","","iti","html-keyboard-response","173","70126","0.0-2.0-68.0-4.0","1","1","0","0","","","","","null","","","","33","","","","","","","","","","","","","","","2","","","","","","","","","","4269.209","3","","","","","","","","",""
"76","","deliberation","html-keyboard-response","174","70204","0.0-2.0-70.0-0.0","1","1","0","0","","","","","50","","","","34","","","","","","","","0","C","0","1689","left","scramble","1000","2","1","19","42","outdoor_scenes","body_parts","Stimuli/Experimental_stims/scramble/outdoor_scenes/scrambled_petr-vysohlid-9fqwGqGLUxc-unsplash.jpg","Stimuli/Experimental_stims/scramble/body_parts/scrambled_lucrezia-carnelos-kn6QrWtnAtY-unsplash.jpg","NaN","NaN","4272.209","1.689","false","1689","","","","","","",""
"238","","scramble_instruction","html-keyboard-response","175","70444","0.0-2.0-70.0-1.0-0.0","1","1","0","0","","","","","50","","","","34","1","19","42","outdoor_scenes","body_parts","","","0","","","","","","","2","","","","","","","","","","4273.898","0.238","","","1","","","","","",""
"null","","deliberation_confirmation","html-keyboard-response","176","70446","0.0-2.0-70.0-2.0-0.0","1","1","0","0","","","","","null","","","","34","","","","","","","","","","","","","","","2","","","","","","","","","","4511.898","-0.927","","","","","","","","",""
"null","","iti","html-keyboard-response","177","70552","0.0-2.0-70.0-4.0","1","1","0","0","","","","","null","","","","34","","","","","","","","","","","","","","","2","","","","","","","","","","4510.9710000000005","1","","","","","","","","",""
"162","","deliberation","html-keyboard-response","178","70717","0.0-2.0-72.0-0.0","1","1","0","0","","","","","50","","","","35","","","","","","","","0","A","0","1822","right","scramble","1000","2","1","21","58","outdoor_scenes","objects","Stimuli/Experimental_stims/scramble/outdoor_scenes/scrambled_sergey-pesterev-y-b_FOmJXdg-unsplash.jpg","Stimuli/Experimental_stims/scramble/objects/scrambled_mockup-graphics-PNsj6RiHAF4-unsplash.jpg","NaN","NaN","4511.9710000000005","1.822","false","1822","","","","","","",""
"261","","scramble_instruction","html-keyboard-response","179","70979","0.0-2.0-72.0-1.0-0.0","1","1","0","0","","","","","50","","","","35","1","21","58","outdoor_scenes","objects","","","0","","","","","","","2","","","","","","","","","","4513.793000000001","0.261","","","0","","","","","",""
"null","","deliberation_confirmation","html-keyboard-response","180","70981","0.0-2.0-72.0-2.0-0.0","1","1","0","0","","","","","null","","","","35","","","","","","","","","","","","","","","2","","","","","","","","","","4774.793000000001","-1.083","","","","","","","","",""
"null","","iti","html-keyboard-response","181","71086","0.0-2.0-72.0-4.0","1","1","0","0","","","","","null","","","","35","","","","","","","","","","","","","","","2","","","","","","","","","","4773.710000000001","1","","","","","","","","",""
"181","","deliberation","html-keyboard-response","182","71268","0.0-2.0-74.0-0.0","1","1","0","0","","","","","50","","","","36","","","","","","","","0","D","0","1692","right","scramble","1500","2","1","52","24","objects","faces","Stimuli/Experimental_stims/scramble/objects/scrambled_fabian-blank-pElSkGRA2NU-unsplash.jpg","Stimuli/Experimental_stims/scramble/faces/scrambled_abstral-official-cyOKLSgkgCE-unsplash.jpg","NaN","NaN","4774.710000000001","1.692","false","1692","","","","","","",""
"304","","scramble_instruction","html-keyboard-response","183","71574","0.0-2.0-74.0-1.0-0.0","1","1","0","0","","","","","50","","","","36","1","52","24","objects","faces","","","0","","","","","","","2","","","","","","","","","","4776.402000000001","0.304","","","0","","","","","",""
"null","","deliberation_confirmation","html-keyboard-response","184","71577","0.0-2.0-74.0-2.0-0.0","1","1","0","0","","","","","null","","","","36","","","","","","","","","","","","","","","2","","","","","","","","","","5080.402000000001","-0.996","","","","","","","","",""
"null","","iti","html-keyboard-response","185","71681","0.0-2.0-74.0-4.0","1","1","0","0","","","","","null","","","","36","","","","","","","","","","","","","","","2","","","","","","","","","","5079.406000000001","1.5","","","","","","","","",""
"131","","deliberation","html-keyboard-response","186","71814","0.0-2.0-76.0-0.0","1","1","0","0","","","","","50","","","","37","","","","","","","","0","B","0","1250","left","scramble","3000","2","1","17","29","outdoor_scenes","faces","Stimuli/Experimental_stims/scramble/outdoor_scenes/scrambled_jeff-king-bJHWJeiHfHc-unsplash.jpg","Stimuli/Experimental_stims/scramble/faces/scrambled_freddy-kearney-o-ioeoATbIM-unsplash.jpg","NaN","NaN","5080.906000000001","1.25","false","1250","","","","","","",""
"290","","scramble_instruction","html-keyboard-response","187","72105","0.0-2.0-76.0-1.0-0.0","1","1","0","0","","","","","50","","","","37","1","17","29","outdoor_scenes","faces","","","0","","","","","","","2","","","","","","","","","","5082.156000000001","0.29","","","1","","","","","",""
"null","","deliberation_confirmation","html-keyboard-response","188","72108","0.0-2.0-76.0-2.0-0.0","1","1","0","0","","","","","null","","","","37","","","","","","","","","","","","","","","2","","","","","","","","","","5372.156000000001","-0.54","","","","","","","","",""
"null","","iti","html-keyboard-response","189","72210","0.0-2.0-76.0-4.0","1","1","0","0","","","","","null","","","","37","","","","","","","","","","","","","","","2","","","","","","","","","","5371.616000000001","3","","","","","","","","",""
"82","","deliberation","html-keyboard-response","190","72294","0.0-2.0-78.0-0.0","1","1","0","0","","","","","50","","","","38","","","","","","","","0","G","0","1773","left","scramble","1500","2","1","53","20","objects","outdoor_scenes","Stimuli/Experimental_stims/scramble/objects/scrambled_insung-yoon-w2JtIQQXoRU-unsplash.jpg","Stimuli/Experimental_stims/scramble/outdoor_scenes/scrambled_samsommer-vddccTqwal8-unsplash.jpg","NaN","NaN","5374.616000000001","1.773","false","1773","","","","","","",""
"239","","scramble_instruction","html-keyboard-response","191","72535","0.0-2.0-78.0-1.0-0.0","1","1","0","0","","","","","50","","","","38","1","53","20","objects","outdoor_scenes","","","0","","","","","","","2","","","","","","","","","","5376.389000000001","0.239","","","1","","","","","",""
"null","","deliberation_confirmation","html-keyboard-response","192","72538","0.0-2.0-78.0-2.0-0.0","1","1","0","0","","","","","null","","","","38","","","","","","","","","","","","","","","2","","","","","","","","","","5615.389000000001","-1.012","","","","","","","","",""
"null","","iti","html-keyboard-response","193","72643","0.0-2.0-78.0-4.0","1","1","0","0","","","","","null","","","","38","","","","","","","","","","","","","","","2","","","","","","","","","","5614.377000000001","1.5","","","","","","","","",""
"137","","deliberation","html-keyboard-response","194","72781","0.0-2.0-80.0-0.0","1","1","0","0","","","","","50","","","","39","1","19","42","outdoor_scenes","body_parts","50","50","0","C","0","NaN","NaN","original","1500","2","1","19","42","outdoor_scenes","body_parts","Stimuli/Experimental_stims/outdoor_scenes/petr-vysohlid-9fqwGqGLUxc-unsplash.jpg","Stimuli/Experimental_stims/body_parts/lucrezia-carnelos-kn6QrWtnAtY-unsplash.jpg","50","50","5615.877000000001","0.137","","","","","","","","",""
"null","","deliberation_confirmation","html-keyboard-response","195","73657","0.0-2.0-80.0-2.0-0.0","1","1","0","0","","","","","null","","","","39","","","","","","","","","","","","","","","2","","","","","","","","","","5616.014000000001","0.863","","","","","","","","",""
"null","","iti","html-keyboard-response","196","73767","0.0-2.0-80.0-4.0","1","1","0","0","","","","","null","","","","39","","","","","","","","","","","","","","","2","","","","","","","","","","5616.877000000001","1.5","","","","","","","","",""
"195","","deliberation","html-keyboard-response","197","73964","0.0-2.0-82.0-0.0","1","1","0","0","","","","","50","","","","40","1","52","24","objects","faces","50","50","0","D","0","NaN","NaN","original","3000","2","1","52","24","objects","faces","Stimuli/Experimental_stims/objects/fabian-blank-pElSkGRA2NU-unsplash.jpg","Stimuli/Experimental_stims/faces/abstral-official-cyOKLSgkgCE-unsplash.jpg","50","50","5618.377000000001","0.195","","","","","","","","",""
"null","","deliberation_confirmation","html-keyboard-response","198","74779","0.0-2.0-82.0-2.0-0.0","1","1","0","0","","","","","null","","","","40","","","","","","","","","","","","","","","2","","","","","","","","","","5618.572000000001","0.805","","","","","","","","",""
"null","","iti","html-keyboard-response","199","74886","0.0-2.0-82.0-4.0","1","1","0","0","","","","","null","","","","40","","","","","","","","","","","","","","","2","","","","","","","","","","5619.377000000001","3","","","","","","","","",""
"8","","deliberation","html-keyboard-response","200","74896","0.0-2.0-84.0-0.0","1","1","0","0","","","","","50","","","","41","","","","","","","","0","L","0","1642","right","scramble","1000","2","1","46","26","body_parts","faces","Stimuli/Experimental_stims/scramble/body_parts/scrambled_sincerely-media-VN6DbKajo5s-unsplash.jpg","Stimuli/Experimental_stims/scramble/faces/scrambled_art-hauntington-jzY0KRJopEI-unsplash.jpg","NaN","NaN","5622.377000000001","1.642","false","1642","","","","","","",""
"284","","scramble_instruction","html-keyboard-response","201","75182","0.0-2.0-84.0-1.0-0.0","1","1","0","0","","","","","50","","","","41","1","46","26","body_parts","faces","","","0","","","","","","","2","","","","","","","","","","5624.019000000001","0.284","","","0","","","","","",""
"null","","deliberation_confirmation","html-keyboard-response","202","75185","0.0-2.0-84.0-2.0-0.0","1","1","0","0","","","","","null","","","","41","","","","","","","","","","","","","","","2","","","","","","","","","","5908.019000000001","-0.926","","","","","","","","",""
"null","","iti","html-keyboard-response","203","75288","0.0-2.0-84.0-4.0","1","1","0","0","","","","","null","","","","41","","","","","","","","","","","","","","","2","","","","","","","","","","5907.093000000001","1","","","","","","","","",""
"241","","deliberation","html-keyboard-response","204","75531","0.0-2.0-86.0-0.0","1","1","0","0","","","","","50","","","","42","","","","","","","","0","J","0","1606","right","scramble","3000","2","1","34","57","faces","objects","Stimuli/Experimental_stims/scramble/faces/scrambled_olena-sergienko-0TSd6uCKTKc-unsplash.jpg","Stimuli/Experimental_stims/scramble/objects/scrambled_kuiye-chen-NuOGFo4PudE-unsplash.jpg","NaN","NaN","5908.093000000001","1.606","false","1606","","","","","","",""
"403","","scramble_instruction","html-keyboard-response","205","75934","0.0-2.0-86.0-1.0-0.0","1","1","0","0","","","","","50","","","","42","1","34","57","faces","objects","","","0","","","","","","","2","","","","","","","","","","5909.6990000000005","0.403","","","0","","","","","",""
"null","","deliberation_confirmation","html-keyboard-response","206","75937","0.0-2.0-86.0-2.0-0.0","1","1","0","0","","","","","null","","","","42","","","","","","","","","","","","","","","2","","","","","","","","","","6312.6990000000005","-1.009","","","","","","","","",""
"null","","iti","html-keyboard-response","207","76041","0.0-2.0-86.0-4.0","1","1","0","0","","","","","null","","","","42","","","","","","","","","","","","","","","2","","","","","","","","","","6311.6900000000005","3","","","","","","","","",""
"171","","deliberation","html-keyboard-response","208","76214","0.0-2.0-88.0-0.0","1","1","0","0","","","","","50","","","","43","1","34","57","faces","objects","50","50","0","J","0","NaN","NaN","original","1500","2","1","34","57","faces","objects","Stimuli/Experimental_stims/faces/olena-sergienko-0TSd6uCKTKc-unsplash.jpg","Stimuli/Experimental_stims/objects/kuiye-chen-NuOGFo4PudE-unsplash.jpg","50","50","6314.6900000000005","0.171","","","","","","","","",""
"null","","deliberation_confirmation","html-keyboard-response","209","77049","0.0-2.0-88.0-2.0-0.0","1","1","0","0","","","","","null","","","","43","","","","","","","","","","","","","","","2","","","","","","","","","","6314.861000000001","0.829","","","","","","","","",""
"null","","iti","html-keyboard-response","210","77162","0.0-2.0-88.0-4.0","1","1","0","0","","","","","null","","","","43","","","","","","","","","","","","","","","2","","","","","","","","","","6315.6900000000005","1.5","","","","","","","","",""
"779","","deliberation","html-keyboard-response","211","77943","0.0-2.0-90.0-0.0","1","1","0","0","","","","","50","","","","44","1","28","47","faces","body_parts","50","50","0","F","0","NaN","NaN","original","2000","2","1","28","47","faces","body_parts","Stimuli/Experimental_stims/faces/erik-lucatero-d2MSDujJl2g-unsplash.jpg","Stimuli/Experimental_stims/body_parts/tucker-good-36skLT5jZcc-unsplash.jpg","50","50","6317.1900000000005","0.779","","","","","","","","",""
"null","","deliberation_confirmation","html-keyboard-response","212","78167","0.0-2.0-90.0-2.0-0.0","1","1","0","0","","","","","null","","","","44","","","","","","","","","","","","","","","2","","","","","","","","","","6317.969000000001","0.221","","","","","","","","",""
"null","","iti","html-keyboard-response","213","78271","0.0-2.0-90.0-4.0","1","1","0","0","","","","","null","","","","44","","","","","","","","","","","","","","","2","","","","","","","","","","6318.1900000000005","2","","","","","","","","",""
"437","","deliberation","html-keyboard-response","214","78710","0.0-2.0-92.0-0.0","1","1","0","0","","","","","50","","","","45","","","","","","","","0","K","0","1191","left","scramble","3500","2","1","37","56","body_parts","objects","Stimuli/Experimental_stims/scramble/body_parts/scrambled_engin-akyurt-Q2rfH3GW39c-unsplash.jpg","Stimuli/Experimental_stims/scramble/objects/scrambled_jonathan-greenaway-Y4hGgeiFn3s-unsplash.jpg","NaN","NaN","6320.1900000000005","1.191","false","1191","","","","","","",""
"370","","scramble_instruction","html-keyboard-response","215","79081","0.0-2.0-92.0-1.0-0.0","1","1","0","0","","","","","50","","","","45","1","37","56","body_parts","objects","","","0","","","","","","","2","","","","","","","","","","6321.381","0.37","","","1","","","","","",""
"null","","deliberation_confirmation","html-keyboard-response","216","79083","0.0-2.0-92.0-2.0-0.0","1","1","0","0","","","","","null","","","","45","","","","","","","","","","","","","","","2","","","","","","","","","","6691.381","-0.561","","","","","","","","",""
"null","","iti","html-keyboard-response","217","79185","0.0-2.0-92.0-4.0","1","1","0","0","","","","","null","","","","45","","","","","","","","","","","","","","","2","","","","","","","","","","6690.820000000001","3.5","","","","","","","","",""
"104","","deliberation","html-keyboard-response","218","79291","0.0-2.0-94.0-0.0","1","1","0","0","","","","","50","","","","46","","","","","","","","0","F","0","1084","right","scramble","1000","2","1","28","47","faces","body_parts","Stimuli/Experimental_stims/scramble/faces/scrambled_erik-lucatero-d2MSDujJl2g-unsplash.jpg","Stimuli/Experimental_stims/scramble/body_parts/scrambled_tucker-good-36skLT5jZcc-unsplash.jpg","NaN","NaN","6694.320000000001","1.084","false","1084","","","","","","",""
"384","","scramble_instruction","html-keyboard-response","219","79677","0.0-2.0-94.0-1.0-0.0","1","1","0","0","","","","","50","","","","46","1","28","47","faces","body_parts","","","0","","","","","","","2","","","","","","","","","","6695.404","0.384","","","0","","","","","",""
"null","","deliberation_confirmation","html-keyboard-response","220","79679","0.0-2.0-94.0-2.0-0.0","1","1","0","0","","","","","null","","","","46","","","","","","","","","","","","","","","2","","","","","","","","","","7079.404","-0.468","","","","","","","","",""
"null","","iti","html-keyboard-response","221","79782","0.0-2.0-94.0-4.0","1","1","0","0","","","","","null","","","","46","","","","","","","","","","","","","","","2","","","","","","","","","","7078.936000000001","1","","","","","","","","",""
"128","","deliberation","html-keyboard-response","222","79912","0.0-2.0-96.0-0.0","1","1","0","0","","","","","50","","","","47","1","25","22","faces","outdoor_scenes","50","50","0","H","0","NaN","NaN","original","1000","2","1","25","22","faces","outdoor_scenes","Stimuli/Experimental_stims/faces/aiony-haust-jmATI5Q_YgY-unsplash.jpg","Stimuli/Experimental_stims/outdoor_scenes/stephen-leonardi-gyIRjKPXupE-unsplash.jpg","50","50","7079.936000000001","0.128","","","","","","","","",""
"null","","deliberation_confirmation","html-keyboard-response","223","80794","0.0-2.0-96.0-2.0-0.0","1","1","0","0","","","","","null","","","","47","","","","","","","","","","","","","","","2","","","","","","","","","","7080.064","0.872","","","","","","","","",""
"null","","iti","html-keyboard-response","224","80902","0.0-2.0-96.0-4.0","1","1","0","0","","","","","null","","","","47","","","","","","","","","","","","","","","2","","","","","","","","","","7080.936000000001","1","","","","","","","","",""
"222","","deliberation","html-keyboard-response","225","81126","0.0-2.0-98.0-0.0","1","1","0","0","","","","","50","","","","48","","","","","","","","0","I","0","558","left","scramble","2000","2","1","36","16","body_parts","outdoor_scenes","Stimuli/Experimental_stims/scramble/body_parts/scrambled_callum-skelton-3KLMq7y46nA-unsplash.jpg","Stimuli/Experimental_stims/scramble/outdoor_scenes/scrambled_jarrett-kow-1ZOyYPOBn7I-unsplash.jpg","NaN","NaN","7081.936000000001","0.558","false","558","","","","","","",""
"265","","scramble_instruction","html-keyboard-response","226","81392","0.0-2.0-98.0-1.0-0.0","1","1","0","0","","","","","50","","","","48","1","36","16","body_parts","outdoor_scenes","","","0","","","","","","","2","","","","","","","","","","7082.494000000001","0.265","","","1","","","","","",""
"null","","deliberation_confirmation","html-keyboard-response","227","81575","0.0-2.0-98.0-2.0-0.0","1","1","0","0","","","","","null","","","","48","","","","","","","","","","","","","","","2","","","","","","","","","","7347.494000000001","0.177","","","","","","","","",""
"null","","iti","html-keyboard-response","228","81681","0.0-2.0-98.0-4.0","1","1","0","0","","","","","null","","","","48","","","","","","","","","","","","","","","2","","","","","","","","","","7347.671","2","","","","","","","","",""
"217","","deliberation","html-keyboard-response","229","81900","0.0-2.0-100.0-0.0","1","1","0","0","","","","","50","","","","49","","","","","","","","0","H","0","772","left","scramble","1500","2","1","25","22","faces","outdoor_scenes","Stimuli/Experimental_stims/scramble/faces/scrambled_aiony-haust-jmATI5Q_YgY-unsplash.jpg","Stimuli/Experimental_stims/scramble/outdoor_scenes/scrambled_stephen-leonardi-gyIRjKPXupE-unsplash.jpg","NaN","NaN","7349.671","0.772","false","772","","","","","","",""
"274","","scramble_instruction","html-keyboard-response","230","82176","0.0-2.0-100.0-1.0-0.0","1","1","0","0","","","","","50","","","","49","1","25","22","faces","outdoor_scenes","","","0","","","","","","","2","","","","","","","","","","7350.443","0.274","","","1","","","","","",""
"null","","deliberation_confirmation","html-keyboard-response","231","82178","0.0-2.0-100.0-2.0-0.0","1","1","0","0","","","","","null","","","","49","","","","","","","","","","","","","","","2","","","","","","","","","","7624.443","-0.046","","","","","","","","",""
"null","","iti","html-keyboard-response","232","82281","0.0-2.0-100.0-4.0","1","1","0","0","","","","","null","","","","49","","","","","","","","","","","","","","","2","","","","","","","","","","7624.397","1.5","","","","","","","","",""
"131","","deliberation","html-keyboard-response","233","82414","0.0-2.0-102.0-0.0","1","1","0","0","","","","","50","","","","50","","","","","","","","0","E","0","1346","right","scramble","2000","2","1","51","41","objects","body_parts","Stimuli/Experimental_stims/scramble/objects/scrambled_art-lasovsky-8XddFc6NkBY-unsplash.jpg","Stimuli/Experimental_stims/scramble/body_parts/scrambled_lucaxx-freire-CacZwMexYdk-unsplash.jpg","NaN","NaN","7625.897","1.346","false","1346","","","","","","",""
"257","","scramble_instruction","html-keyboard-response","234","82671","0.0-2.0-102.0-1.0-0.0","1","1","0","0","","","","","50","","","","50","1","51","41","objects","body_parts","","","0","","","","","","","2","","","","","","","","","","7627.2429999999995","0.257","","","0","","","","","",""
"null","","deliberation_confirmation","html-keyboard-response","235","82674","0.0-2.0-102.0-2.0-0.0","1","1","0","0","","","","","null","","","","50","","","","","","","","","","","","","","","2","","","","","","","","","","7884.2429999999995","-0.603","","","","","","","","",""
"null","","iti","html-keyboard-response","236","82778","0.0-2.0-102.0-4.0","1","1","0","0","","","","","null","","","","50","","","","","","","","","","","","","","","2","","","","","","","","","","7883.639999999999","2","","","","","","","","",""
"179","","deliberation","html-keyboard-response","237","82959","0.0-2.0-104.0-0.0","1","1","0","0","","","","","50","","","","51","1","46","26","body_parts","faces","50","50","0","L","0","NaN","NaN","original","3500","2","1","46","26","body_parts","faces","Stimuli/Experimental_stims/body_parts/sincerely-media-VN6DbKajo5s-unsplash.jpg","Stimuli/Experimental_stims/faces/art-hauntington-jzY0KRJopEI-unsplash.jpg","50","50","7885.639999999999","0.179","","","","","","","","",""
"null","","deliberation_confirmation","html-keyboard-response","238","83782","0.0-2.0-104.0-2.0-0.0","1","1","0","0","","","","","null","","","","51","","","","","","","","","","","","","","","2","","","","","","","","","","7885.8189999999995","0.821","","","","","","","","",""
"null","","iti","html-keyboard-response","239","83891","0.0-2.0-104.0-4.0","1","1","0","0","","","","","null","","","","51","","","","","","","","","","","","","","","2","","","","","","","","","","7886.639999999999","3.5","","","","","","","","",""
"3642","","deliberation_block_over","html-keyboard-response","240","87534","0.0-2.0-104.0-6.0-0.0","1","1","0","0","","","","","83","","","","51","","","","","","","","","","","","","","","","","","","","","","","","","","","","","","","","","","",""
"2384","","start_run","html-keyboard-response","241","89918","0.0-2.0-104.0-6.0-1.0","1","1","0","0","","","","","84","","","","","","","","","","","","","","","","","","","","","","","","","","","","","","","","","","","","","","",""
"129","","deliberation","html-keyboard-response","242","90050","0.0-2.0-106.0-0.0","1","1","0","0","","","","","50","","","","52","1","28","47","faces","body_parts","50","50","0","F","0","NaN","NaN","original","1000","3","2","28","47","faces","body_parts","Stimuli/Experimental_stims/faces/erik-lucatero-d2MSDujJl2g-unsplash.jpg","Stimuli/Experimental_stims/body_parts/tucker-good-36skLT5jZcc-unsplash.jpg","50","50","0","0.129","","","","","","","","",""
"null","","deliberation_confirmation","html-keyboard-response","243","90931","0.0-2.0-106.0-2.0-0.0","1","1","0","0","","","","","null","","","","52","","","","","","","","","","","","","","","3","","","","","","","","","","0.129","0.871","","","","","","","","",""
"null","","iti","html-keyboard-response","244","91039","0.0-2.0-106.0-4.0","1","1","0","0","","","","","null","","","","52","","","","","","","","","","","","","","","3","","","","","","","","","","1","1","","","","","","","","",""
"234","","deliberation","html-keyboard-response","245","91275","0.0-2.0-108.0-0.0","1","1","0","0","","","","","50","","","","53","1","36","16","body_parts","outdoor_scenes","50","50","0","I","0","NaN","NaN","original","1500","3","2","36","16","body_parts","outdoor_scenes","Stimuli/Experimental_stims/body_parts/callum-skelton-3KLMq7y46nA-unsplash.jpg","Stimuli/Experimental_stims/outdoor_scenes/jarrett-kow-1ZOyYPOBn7I-unsplash.jpg","50","50","2","0.234","","","","","","","","",""
"null","","deliberation_confirmation","html-keyboard-response","246","92049","0.0-2.0-108.0-2.0-0.0","1","1","0","0","","","","","null","","","","53","","","","","","","","","","","","","","","3","","","","","","","","","","2.234","0.766","","","","","","","","",""
"null","","iti","html-keyboard-response","247","92161","0.0-2.0-108.0-4.0","1","1","0","0","","","","","null","","","","53","","","","","","","","","","","","","","","3","","","","","","","","","","3","1.5","","","","","","","","",""
"144","","deliberation","html-keyboard-response","248","92306","0.0-2.0-110.0-0.0","1","1","0","0","","","","","50","","","","54","","","","","","","","0","L","0","1293","left","scramble","2000","3","2","46","26","body_parts","faces","Stimuli/Experimental_stims/scramble/body_parts/scrambled_sincerely-media-VN6DbKajo5s-unsplash.jpg","Stimuli/Experimental_stims/scramble/faces/scrambled_art-hauntington-jzY0KRJopEI-unsplash.jpg","NaN","NaN","4.5","1.293","false","1293","","","","","","",""
"242","","scramble_instruction","html-keyboard-response","249","92549","0.0-2.0-110.0-1.0-0.0","1","1","0","0","","","","","50","","","","54","1","46","26","body_parts","faces","","","0","","","","","","","3","","","","","","","","","","5.793","0.242","","","1","","","","","",""
"null","","deliberation_confirmation","html-keyboard-response","250","92552","0.0-2.0-110.0-2.0-0.0","1","1","0","0","","","","","null","","","","54","","","","","","","","","","","","","","","3","","","","","","","","","","247.793","-0.535","","","","","","","","",""
"null","","iti","html-keyboard-response","251","92658","0.0-2.0-110.0-4.0","1","1","0","0","","","","","null","","","","54","","","","","","","","","","","","","","","3","","","","","","","","","","247.258","2","","","","","","","","",""
"151","","deliberation","html-keyboard-response","252","92810","0.0-2.0-112.0-0.0","1","1","0","0","","","","","50","","","","55","1","46","26","body_parts","faces","50","50","0","L","0","NaN","NaN","original","1500","3","2","46","26","body_parts","faces","Stimuli/Experimental_stims/body_parts/sincerely-media-VN6DbKajo5s-unsplash.jpg","Stimuli/Experimental_stims/faces/art-hauntington-jzY0KRJopEI-unsplash.jpg","50","50","249.258","0.151","","","","","","","","",""
"null","","deliberation_confirmation","html-keyboard-response","253","93662","0.0-2.0-112.0-2.0-0.0","1","1","0","0","","","","","null","","","","55","","","","","","","","","","","","","","","3","","","","","","","","","","249.40900000000002","0.849","","","","","","","","",""
"null","","iti","html-keyboard-response","254","93766","0.0-2.0-112.0-4.0","1","1","0","0","","","","","null","","","","55","","","","","","","","","","","","","","","3","","","","","","","","","","250.258","1.5","","","","","","","","",""
"124","","deliberation","html-keyboard-response","255","93892","0.0-2.0-114.0-0.0","1","1","0","0","","","","","50","","","","56","1","34","57","faces","objects","50","50","0","J","0","NaN","NaN","original","3000","3","2","34","57","faces","objects","Stimuli/Experimental_stims/faces/olena-sergienko-0TSd6uCKTKc-unsplash.jpg","Stimuli/Experimental_stims/objects/kuiye-chen-NuOGFo4PudE-unsplash.jpg","50","50","251.758","0.124","","","","","","","","",""
"null","","deliberation_confirmation","html-keyboard-response","256","94774","0.0-2.0-114.0-2.0-0.0","1","1","0","0","","","","","null","","","","56","","","","","","","","","","","","","","","3","","","","","","","","","","251.882","0.876","","","","","","","","",""
"null","","iti","html-keyboard-response","257","94881","0.0-2.0-114.0-4.0","1","1","0","0","","","","","null","","","","56","","","","","","","","","","","","","","","3","","","","","","","","","","252.758","3","","","","","","","","",""
"47","","deliberation","html-keyboard-response","258","94930","0.0-2.0-116.0-0.0","1","1","0","0","","","","","50","","","","57","1","21","58","outdoor_scenes","objects","50","50","0","A","0","NaN","NaN","original","2000","3","2","21","58","outdoor_scenes","objects","Stimuli/Experimental_stims/outdoor_scenes/sergey-pesterev-y-b_FOmJXdg-unsplash.jpg","Stimuli/Experimental_stims/objects/mockup-graphics-PNsj6RiHAF4-unsplash.jpg","50","50","255.758","0.047","","","","","","","","",""
"null","","deliberation_confirmation","html-keyboard-response","259","95887","0.0-2.0-116.0-2.0-0.0","1","1","0","0","","","","","null","","","","57","","","","","","","","","","","","","","","3","","","","","","","","","","255.805","0.953","","","","","","","","",""
"null","","iti","html-keyboard-response","260","95993","0.0-2.0-116.0-4.0","1","1","0","0","","","","","null","","","","57","","","","","","","","","","","","","","","3","","","","","","","","","","256.758","2","","","","","","","","",""
"153","","deliberation","html-keyboard-response","261","96148","0.0-2.0-118.0-0.0","1","1","0","0","","","","","50","","","","58","","","","","","","","0","A","0","767","left","scramble","3000","3","2","21","58","outdoor_scenes","objects","Stimuli/Experimental_stims/scramble/outdoor_scenes/scrambled_sergey-pesterev-y-b_FOmJXdg-unsplash.jpg","Stimuli/Experimental_stims/scramble/objects/scrambled_mockup-graphics-PNsj6RiHAF4-unsplash.jpg","NaN","NaN","258.758","0.767","false","767","","","","","","",""
"289","","scramble_instruction","html-keyboard-response","262","96439","0.0-2.0-118.0-1.0-0.0","1","1","0","0","","","","","50","","","","58","1","21","58","outdoor_scenes","objects","","","0","","","","","","","3","","","","","","","","","","259.525","0.289","","","1","","","","","",""
"null","","deliberation_confirmation","html-keyboard-response","263","96441","0.0-2.0-118.0-2.0-0.0","1","1","0","0","","","","","null","","","","58","","","","","","","","","","","","","","","3","","","","","","","","","","548.525","-0.056","","","","","","","","",""
"null","","iti","html-keyboard-response","264","96544","0.0-2.0-118.0-4.0","1","1","0","0","","","","","null","","","","58","","","","","","","","","","","","","","","3","","","","","","","","","","548.4689999999999","3","","","","","","","","",""
"110","","deliberation","html-keyboard-response","265","96656","0.0-2.0-120.0-0.0","1","1","0","0","","","","","50","","","","59","","","","","","","","0","H","0","1208","right","scramble","1500","3","2","25","22","faces","outdoor_scenes","Stimuli/Experimental_stims/scramble/faces/scrambled_aiony-haust-jmATI5Q_YgY-unsplash.jpg","Stimuli/Experimental_stims/scramble/outdoor_scenes/scrambled_stephen-leonardi-gyIRjKPXupE-unsplash.jpg","NaN","NaN","551.4689999999999","1.208","false","1208","","","","","","",""
"267","","scramble_instruction","html-keyboard-response","266","96924","0.0-2.0-120.0-1.0-0.0","1","1","0","0","","","","","50","","","","59","1","25","22","faces","outdoor_scenes","","","0","","","","","","","3","","","","","","","","","","552.6769999999999","0.267","","","0","","","","","",""
"null","","deliberation_confirmation","html-keyboard-response","267","96926","0.0-2.0-120.0-2.0-0.0","1","1","0","0","","","","","null","","","","59","","","","","","","","","","","","","","","3","","","","","","","","","","819.6769999999999","-0.475","","","","","","","","",""
"null","","iti","html-keyboard-response","268","97031","0.0-2.0-120.0-4.0","1","1","0","0","","","","","null","","","","59","","","","","","","","","","","","","","","3","","","","","","","","","","819.2019999999999","1.5","","","","","","","","",""
"112","","deliberation","html-keyboard-response","269","97145","0.0-2.0-122.0-0.0","1","1","0","0","","","","","50","","","","60","","","","","","","","0","G","0","953","left","scramble","1000","3","2","53","20","objects","outdoor_scenes","Stimuli/Experimental_stims/scramble/objects/scrambled_insung-yoon-w2JtIQQXoRU-unsplash.jpg","Stimuli/Experimental_stims/scramble/outdoor_scenes/scrambled_samsommer-vddccTqwal8-unsplash.jpg","NaN","NaN","820.7019999999999","0.953","false","953","","","","","","",""
"275","","scramble_instruction","html-keyboard-response","270","97422","0.0-2.0-122.0-1.0-0.0","1","1","0","0","","","","","50","","","","60","1","53","20","objects","outdoor_scenes","","","0","","","","","","","3","","","","","","","","","","821.6549999999999","0.275","","","1","","","","","",""
"null","","deliberation_confirmation","html-keyboard-response","271","97424","0.0-2.0-122.0-2.0-0.0","1","1","0","0","","","","","null","","","","60","","","","","","","","","","","","","","","3","","","","","","","","","","1096.6549999999997","-0.228","","","","","","","","",""
"null","","iti","html-keyboard-response","272","97530","0.0-2.0-122.0-4.0","1","1","0","0","","","","","null","","","","60","","","","","","","","","","","","","","","3","","","","","","","","","","1096.4269999999997","1","","","","","","","","",""
"138","","deliberation","html-keyboard-response","273","97670","0.0-2.0-124.0-0.0","1","1","0","0","","","","","50","","","","61","","","","","","","","0","F","0","1176","right","scramble","1000","3","2","28","47","faces","body_parts","Stimuli/Experimental_stims/scramble/faces/scrambled_erik-lucatero-d2MSDujJl2g-unsplash.jpg","Stimuli/Experimental_stims/scramble/body_parts/scrambled_tucker-good-36skLT5jZcc-unsplash.jpg","NaN","NaN","1097.4269999999997","1.176","false","1176","","","","","","",""
"239","","scramble_instruction","html-keyboard-response","274","97911","0.0-2.0-124.0-1.0-0.0","1","1","0","0","","","","","50","","","","61","1","28","47","faces","body_parts","","","0","","","","","","","3","","","","","","","","","","1098.6029999999996","0.239","","","0","","","","","",""
"null","","deliberation_confirmation","html-keyboard-response","275","97913","0.0-2.0-124.0-2.0-0.0","1","1","0","0","","","","","null","","","","61","","","","","","","","","","","","","","","3","","","","","","","","","","1337.6029999999996","-0.415","","","","","","","","",""
"null","","iti","html-keyboard-response","276","98023","0.0-2.0-124.0-4.0","1","1","0","0","","","","","null","","","","61","","","","","","","","","","","","","","","3","","","","","","","","","","1337.1879999999996","1","","","","","","","","",""
"120","","deliberation","html-keyboard-response","277","98145","0.0-2.0-126.0-0.0","1","1","0","0","","","","","50","","","","62","1","19","42","outdoor_scenes","body_parts","50","50","0","C","0","NaN","NaN","original","1000","3","2","19","42","outdoor_scenes","body_parts","Stimuli/Experimental_stims/outdoor_scenes/petr-vysohlid-9fqwGqGLUxc-unsplash.jpg","Stimuli/Experimental_stims/body_parts/lucrezia-carnelos-kn6QrWtnAtY-unsplash.jpg","50","50","1338.1879999999996","0.12","","","","","","","","",""
"null","","deliberation_confirmation","html-keyboard-response","278","99031","0.0-2.0-126.0-2.0-0.0","1","1","0","0","","","","","null","","","","62","","","","","","","","","","","","","","","3","","","","","","","","","","1338.3079999999995","0.88","","","","","","","","",""
"null","","iti","html-keyboard-response","279","99134","0.0-2.0-126.0-4.0","1","1","0","0","","","","","null","","","","62","","","","","","","","","","","","","","","3","","","","","","","","","","1339.1879999999996","1","","","","","","","","",""
"27","","deliberation","html-keyboard-response","280","99162","0.0-2.0-128.0-0.0","1","1","0","0","","","","","50","","","","63","1","25","22","faces","outdoor_scenes","50","50","0","H","0","NaN","NaN","original","1500","3","2","25","22","faces","outdoor_scenes","Stimuli/Experimental_stims/faces/aiony-haust-jmATI5Q_YgY-unsplash.jpg","Stimuli/Experimental_stims/outdoor_scenes/stephen-leonardi-gyIRjKPXupE-unsplash.jpg","50","50","1340.1879999999996","0.027","","","","","","","","",""
"null","","deliberation_confirmation","html-keyboard-response","281","100137","0.0-2.0-128.0-2.0-0.0","1","1","0","0","","","","","null","","","","63","","","","","","","","","","","","","","","3","","","","","","","","","","1340.2149999999997","0.973","","","","","","","","",""
"null","","iti","html-keyboard-response","282","100249","0.0-2.0-128.0-4.0","1","1","0","0","","","","","null","","","","63","","","","","","","","","","","","","","","3","","","","","","","","","","1341.1879999999996","1.5","","","","","","","","",""
"56","","deliberation","html-keyboard-response","283","100306","0.0-2.0-130.0-0.0","1","1","0","0","","","","","50","","","","64","1","52","24","objects","faces","50","50","0","D","0","NaN","NaN","original","3500","3","2","52","24","objects","faces","Stimuli/Experimental_stims/objects/fabian-blank-pElSkGRA2NU-unsplash.jpg","Stimuli/Experimental_stims/faces/abstral-official-cyOKLSgkgCE-unsplash.jpg","50","50","1342.6879999999996","0.056","","","","","","","","",""
"null","","deliberation_confirmation","html-keyboard-response","284","101258","0.0-2.0-130.0-2.0-0.0","1","1","0","0","","","","","null","","","","64","","","","","","","","","","","","","","","3","","","","","","","","","","1342.7439999999997","0.944","","","","","","","","",""
"null","","iti","html-keyboard-response","285","101367","0.0-2.0-130.0-4.0","1","1","0","0","","","","","null","","","","64","","","","","","","","","","","","","","","3","","","","","","","","","","1343.6879999999996","3.5","","","","","","","","",""
"63","","deliberation","html-keyboard-response","286","101433","0.0-2.0-132.0-0.0","1","1","0","0","","","","","50","","","","65","1","51","41","objects","body_parts","50","50","0","E","0","NaN","NaN","original","1000","3","2","51","41","objects","body_parts","Stimuli/Experimental_stims/objects/art-lasovsky-8XddFc6NkBY-unsplash.jpg","Stimuli/Experimental_stims/body_parts/lucaxx-freire-CacZwMexYdk-unsplash.jpg","50","50","1347.1879999999996","0.063","","","","","","","","",""
"null","","deliberation_confirmation","html-keyboard-response","287","102375","0.0-2.0-132.0-2.0-0.0","1","1","0","0","","","","","null","","","","65","","","","","","","","","","","","","","","3","","","","","","","","","","1347.2509999999997","0.937","","","","","","","","",""
"null","","iti","html-keyboard-response","288","102482","0.0-2.0-132.0-4.0","1","1","0","0","","","","","null","","","","65","","","","","","","","","","","","","","","3","","","","","","","","","","1348.1879999999996","1","","","","","","","","",""
"125","","deliberation","html-keyboard-response","289","102609","0.0-2.0-134.0-0.0","1","1","0","0","","","","","50","","","","66","","","","","","","","0","I","0","1323","right","scramble","3000","3","2","36","16","body_parts","outdoor_scenes","Stimuli/Experimental_stims/scramble/body_parts/scrambled_callum-skelton-3KLMq7y46nA-unsplash.jpg","Stimuli/Experimental_stims/scramble/outdoor_scenes/scrambled_jarrett-kow-1ZOyYPOBn7I-unsplash.jpg","NaN","NaN","1349.1879999999996","1.323","false","1323","","","","","","",""
"316","","scramble_instruction","html-keyboard-response","290","102926","0.0-2.0-134.0-1.0-0.0","1","1","0","0","","","","","50","","","","66","1","36","16","body_parts","outdoor_scenes","","","0","","","","","","","3","","","","","","","","","","1350.5109999999997","0.316","","","0","","","","","",""
"null","","deliberation_confirmation","html-keyboard-response","291","102928","0.0-2.0-134.0-2.0-0.0","1","1","0","0","","","","","null","","","","66","","","","","","","","","","","","","","","3","","","","","","","","","","1666.5109999999997","-0.639","","","","","","","","",""
"null","","iti","html-keyboard-response","292","103031","0.0-2.0-134.0-4.0","1","1","0","0","","","","","null","","","","66","","","","","","","","","","","","","","","3","","","","","","","","","","1665.8719999999998","3","","","","","","","","",""
"217","","deliberation","html-keyboard-response","293","103250","0.0-2.0-136.0-0.0","1","1","0","0","","","","","50","","","","67","1","37","56","body_parts","objects","50","50","0","K","0","NaN","NaN","original","1000","3","2","37","56","body_parts","objects","Stimuli/Experimental_stims/body_parts/engin-akyurt-Q2rfH3GW39c-unsplash.jpg","Stimuli/Experimental_stims/objects/jonathan-greenaway-Y4hGgeiFn3s-unsplash.jpg","50","50","1668.8719999999998","0.217","","","","","","","","",""
"null","","deliberation_confirmation","html-keyboard-response","294","104038","0.0-2.0-136.0-2.0-0.0","1","1","0","0","","","","","null","","","","67","","","","","","","","","","","","","","","3","","","","","","","","","","1669.089","0.783","","","","","","","","",""
"null","","iti","html-keyboard-response","295","104142","0.0-2.0-136.0-4.0","1","1","0","0","","","","","null","","","","67","","","","","","","","","","","","","","","3","","","","","","","","","","1669.8719999999998","1","","","","","","","","",""
"269","","deliberation","html-keyboard-response","296","104413","0.0-2.0-138.0-0.0","1","1","0","0","","","","","50","","","","68","","","","","","","","0","B","0","1337","left","scramble","2000","3","2","17","29","outdoor_scenes","faces","Stimuli/Experimental_stims/scramble/outdoor_scenes/scrambled_jeff-king-bJHWJeiHfHc-unsplash.jpg","Stimuli/Experimental_stims/scramble/faces/scrambled_freddy-kearney-o-ioeoATbIM-unsplash.jpg","NaN","NaN","1670.8719999999998","1.337","false","1337","","","","","","",""
"361","","scramble_instruction","html-keyboard-response","297","104774","0.0-2.0-138.0-1.0-0.0","1","1","0","0","","","","","50","","","","68","1","17","29","outdoor_scenes","faces","","","0","","","","","","","3","","","","","","","","","","1672.2089999999998","0.361","","","1","","","","","",""
"null","","deliberation_confirmation","html-keyboard-response","298","104777","0.0-2.0-138.0-2.0-0.0","1","1","0","0","","","","","null","","","","68","","","","","","","","","","","","","","","3","","","","","","","","","","2033.2089999999998","-0.698","","","","","","","","",""
"null","","iti","html-keyboard-response","299","104880","0.0-2.0-138.0-4.0","1","1","0","0","","","","","null","","","","68","","","","","","","","","","","","","","","3","","","","","","","","","","2032.5109999999997","2","","","","","","","","",""
"202","","deliberation","html-keyboard-response","300","105084","0.0-2.0-140.0-0.0","1","1","0","0","","","","","50","","","","69","","","","","","","","0","K","0","1022","right","scramble","1500","3","2","37","56","body_parts","objects","Stimuli/Experimental_stims/scramble/body_parts/scrambled_engin-akyurt-Q2rfH3GW39c-unsplash.jpg","Stimuli/Experimental_stims/scramble/objects/scrambled_jonathan-greenaway-Y4hGgeiFn3s-unsplash.jpg","NaN","NaN","2034.5109999999997","1.022","false","1022","","","","","","",""
"260","","scramble_instruction","html-keyboard-response","301","105346","0.0-2.0-140.0-1.0-0.0","1","1","0","0","","","","","50","","","","69","1","37","56","body_parts","objects","","","0","","","","","","","3","","","","","","","","","","2035.5329999999997","0.26","","","0","","","","","",""
"null","","deliberation_confirmation","html-keyboard-response","302","105348","0.0-2.0-140.0-2.0-0.0","1","1","0","0","","","","","null","","","","69","","","","","","","","","","","","","","","3","","","","","","","","","","2295.5329999999994","-0.282","","","","","","","","",""
"null","","iti","html-keyboard-response","303","105456","0.0-2.0-140.0-4.0","1","1","0","0","","","","","null","","","","69","","","","","","","","","","","","","","","3","","","","","","","","","","2295.2509999999993","1.5","","","","","","","","",""
"186","","deliberation","html-keyboard-response","304","105644","0.0-2.0-142.0-0.0","1","1","0","0","","","","","50","","","","70","1","53","20","objects","outdoor_scenes","50","50","0","G","0","NaN","NaN","original","3000","3","2","53","20","objects","outdoor_scenes","Stimuli/Experimental_stims/objects/insung-yoon-w2JtIQQXoRU-unsplash.jpg","Stimuli/Experimental_stims/outdoor_scenes/samsommer-vddccTqwal8-unsplash.jpg","50","50","2296.7509999999993","0.186","","","","","","","","",""
"null","","deliberation_confirmation","html-keyboard-response","305","106466","0.0-2.0-142.0-2.0-0.0","1","1","0","0","","","","","null","","","","70","","","","","","","","","","","","","","","3","","","","","","","","","","2296.9369999999994","0.814","","","","","","","","",""
"null","","iti","html-keyboard-response","306","106578","0.0-2.0-142.0-4.0","1","1","0","0","","","","","null","","","","70","","","","","","","","","","","","","","","3","","","","","","","","","","2297.7509999999993","3","","","","","","","","",""
"186","","deliberation","html-keyboard-response","307","106767","0.0-2.0-144.0-0.0","1","1","0","0","","","","","50","","","","71","","","","","","","","0","E","0","1325","right","scramble","1000","3","2","51","41","objects","body_parts","Stimuli/Experimental_stims/scramble/objects/scrambled_art-lasovsky-8XddFc6NkBY-unsplash.jpg","Stimuli/Experimental_stims/scramble/body_parts/scrambled_lucaxx-freire-CacZwMexYdk-unsplash.jpg","NaN","NaN","2300.7509999999993","1.325","false","1325","","","","","","",""
