"success","ttype","start_time","trial_type","trial_index","time_elapsed","internal_node_id","warning","missed_checkup","PID","stim_type","view_history","rt","responses","category","repeat_instructions","key_press","response","stimulus_id","painting","index","stimulus_left","stimulus_right","explain_trial","reward_type","rating_left","rating_right","painting_left","painting_right","block","left_chosen","chosen_obj","unchosen_obj","explain_response","reward_amount","see_reward_rt","register_reward_response","register_reward_rt","deliberation_reward_tally","stimulus_left_deliberation_ind","stimulus_right_deliberation_ind","chosen_trial","gain_left","higher_outcome_chosen","old_pair","chosen_object","rt_pairs","left_object_chosen","rt_object","old_response","new_rating","deliberated_stim","initial_rating","outcome_eval_rt","outcome_eval_response","outcome_eval_gain","outcome_eval_acc","preamble","outcome_eval_confidence","outcome_eval_confidence_rt","total_reward_tally"
"true","full_screen","d01172023hr2015","fullscreen","0","4431","0.0-0.0","0","0","2V2GG","People","","","","","","","","","","","","","","","","","","","","","","","","","","","","","","","","","","","","","","","","","","","","","","","","","",""
"","rating_instructions","","instructions","1","5706","0.0-1.0-0.0","0","0","2V2GG","People","[{""page_index"":0,""viewing_time"":1060},{""page_index"":1,""viewing_time"":212}]","1272","","","","","","","","","","","","","","","","","","","","","","","","","","","","","","","","","","","","","","","","","","","","","","","",""
"","","","survey-multi-choice","2","8194","0.0-1.0-1.0","0","0","2V2GG","People","","2484","{""Q0"":""True"",""Q1"":""Mouse""}","rating_comprehension_check","0","","","","","","","","","","","","","","","","","","","","","","","","","","","","","","","","","","","","","","","","","","","","",""
"","start_phase","","html-keyboard-response","3","9368","0.0-2.0","0","0","2V2GG","People","","1171","","","","78","","","","","","","","","","","","","","","","","","","","","","","","","","","","","","","","","","","","","","","","","","","",""
"","rating","","html-slider-response","4","11271","0.0-3.0","0","0","2V2GG","People","","1901","","","","","50","40","prince-akachi-4Yv84VgQkRM-unsplash.jpg","0","","","","","","","","","","","","","","","","","","","","","","","","","","","","","","","","","","","","","","","",""
"","rating","","html-slider-response","5","11427","0.0-4.0","0","0","2V2GG","People","","154","","","","","50","33","olena-sergienko-0TSd6uCKTKc-unsplash.jpg","1","","","","","","","","","","","","","","","","","","","","","","","","","","","","","","","","","","","","","","","",""
"","rating","","html-slider-response","6","11583","0.0-5.0","0","0","2V2GG","People","","154","","","","","50","6","ben-o-bro-C5XyLljkMrY-unsplash.jpg","2","","","","","","","","","","","","","","","","","","","","","","","","","","","","","","","","","","","","","","","",""
"","rating","","html-slider-response","7","11807","0.0-6.0","0","0","2V2GG","People","","222","","","","","50","38","petr-sevcovic-HzDF-rxlSeM-unsplash.jpg","3","","","","","","","","","","","","","","","","","","","","","","","","","","","","","","","","","","","","","","","",""
"","rating","","html-slider-response","8","11973","0.0-7.0","0","0","2V2GG","People","","164","","","","","50","29","leilani-angel-K84vnnzxmTQ-unsplash.jpg","4","","","","","","","","","","","","","","","","","","","","","","","","","","","","","","","","","","","","","","","",""
"","rating","","html-slider-response","9","12139","0.0-8.0","0","0","2V2GG","People","","164","","","","","50","43","raamin-ka-0qJBEzudn5E-unsplash.jpg","5","","","","","","","","","","","","","","","","","","","","","","","","","","","","","","","","","","","","","","","",""
"","rating","","html-slider-response","10","12307","0.0-9.0","0","0","2V2GG","People","","166","","","","","50","39","philip-martin-5aGUyCW_PJw-unsplash.jpg","6","","","","","","","","","","","","","","","","","","","","","","","","","","","","","","","","","","","","","","","",""
"","rating","","html-slider-response","11","12477","0.0-10.0","0","0","2V2GG","People","","168","","","","","50","11","christian-ferrer-8vT-DgHZDG4-unsplash.jpg","7","","","","","","","","","","","","","","","","","","","","","","","","","","","","","","","","","","","","","","","",""
"","rating","","html-slider-response","12","12643","0.0-11.0","0","0","2V2GG","People","","164","","","","","50","23","joanna-nix-walkup-H4fEMshfwTE-unsplash.jpg","8","","","","","","","","","","","","","","","","","","","","","","","","","","","","","","","","","","","","","","","",""
"","rating","","html-slider-response","13","12799","0.0-12.0","0","0","2V2GG","People","","154","","","","","50","15","gabriel-silverio-u3WmDyKGsrY-unsplash.jpg","9","","","","","","","","","","","","","","","","","","","","","","","","","","","","","","","","","","","","","","","",""
"","rating","","html-slider-response","14","12955","0.0-13.0","0","0","2V2GG","People","","154","","","","","50","5","batel-studio-ttSRjiYG_WM-unsplash.jpg","10","","","","","","","","","","","","","","","","","","","","","","","","","","","","","","","","","","","","","","","",""
"","rating","","html-slider-response","15","13123","0.0-14.0","0","0","2V2GG","People","","166","","","","","50","46","stefan-stefancik-QXevDflbl8A-unsplash.jpg","11","","","","","","","","","","","","","","","","","","","","","","","","","","","","","","","","","","","","","","","",""
"","rating","","html-slider-response","16","13291","0.0-15.0","0","0","2V2GG","People","","166","","","","","50","36","ospan-ali-mGdA2fzjWLo-unsplash.jpg","12","","","","","","","","","","","","","","","","","","","","","","","","","","","","","","","","","","","","","","","",""
"","rating","","html-slider-response","17","13457","0.0-16.0","0","0","2V2GG","People","","164","","","","","50","0","abstral-official-cyOKLSgkgCE-unsplash.jpg","13","","","","","","","","","","","","","","","","","","","","","","","","","","","","","","","","","","","","","","","",""
"","rating","","html-slider-response","18","13634","0.0-17.0","0","0","2V2GG","People","","176","","","","","50","37","pavel-anoshin-d0peGya6R5Y-unsplash.jpg","14","","","","","","","","","","","","","","","","","","","","","","","","","","","","","","","","","","","","","","","",""
"","rating","","html-slider-response","19","13803","0.0-18.0","0","0","2V2GG","People","","167","","","","","50","31","mathilda-khoo-vLR0YP_otCo-unsplash.jpg","15","","","","","","","","","","","","","","","","","","","","","","","","","","","","","","","","","","","","","","","",""
"","rating","","html-slider-response","20","13971","0.0-19.0","0","0","2V2GG","People","","166","","","","","50","3","art-hauntington-jzY0KRJopEI-unsplash.jpg","16","","","","","","","","","","","","","","","","","","","","","","","","","","","","","","","","","","","","","","","",""
"","rating","","html-slider-response","21","14149","0.0-20.0","0","0","2V2GG","People","","176","","","","","50","27","jurica-koletic-7YVZYZeITc8-unsplash.jpg","17","","","","","","","","","","","","","","","","","","","","","","","","","","","","","","","","","","","","","","","",""
"","rating","","html-slider-response","22","14315","0.0-21.0","0","0","2V2GG","People","","164","","","","","50","18","good-faces-xmSWVeGEnJw-unsplash.jpg","18","","","","","","","","","","","","","","","","","","","","","","","","","","","","","","","","","","","","","","","",""
"","rating","","html-slider-response","23","14494","0.0-22.0","0","0","2V2GG","People","","177","","","","","50","16","giano-currie-5-9YOsmf8IQ-unsplash.jpg","19","","","","","","","","","","","","","","","","","","","","","","","","","","","","","","","","","","","","","","","",""
"","rating","","html-slider-response","24","14672","0.0-23.0","0","0","2V2GG","People","","177","","","","","50","22","jessica-radanavong-mrYkTuAesKE-unsplash.jpg","20","","","","","","","","","","","","","","","","","","","","","","","","","","","","","","","","","","","","","","","",""
"","rating","","html-slider-response","25","14853","0.0-24.0","0","0","2V2GG","People","","180","","","","","50","35","oliver-ragfelt-khV4fTy6-D8-unsplash.jpg","21","","","","","","","","","","","","","","","","","","","","","","","","","","","","","","","","","","","","","","","",""
"","rating","","html-slider-response","26","15027","0.0-25.0","0","0","2V2GG","People","","173","","","","","50","26","juri-gianfrancesco-9EZadYaMzk4-unsplash.jpg","22","","","","","","","","","","","","","","","","","","","","","","","","","","","","","","","","","","","","","","","",""
"","rating","","html-slider-response","27","15209","0.0-26.0","0","0","2V2GG","People","","180","","","","","50","45","sarah-noltner-pL5ZzPp1zqg-unsplash.jpg","23","","","","","","","","","","","","","","","","","","","","","","","","","","","","","","","","","","","","","","","",""
"","rating","","html-slider-response","28","15386","0.0-27.0","0","0","2V2GG","People","","175","","","","","50","47","tyler-nix-ZGa9d1a_4tA-unsplash.jpg","24","","","","","","","","","","","","","","","","","","","","","","","","","","","","","","","","","","","","","","","",""
"","rating","","html-slider-response","29","15555","0.0-28.0","0","0","2V2GG","People","","168","","","","","50","42","prince-akachi-l3IHXOdMyHQ-unsplash.jpg","25","","","","","","","","","","","","","","","","","","","","","","","","","","","","","","","","","","","","","","","",""
"","rating","","html-slider-response","30","15731","0.0-29.0","0","0","2V2GG","People","","175","","","","","50","21","jessica-felicio-_cvwXhGqG-o-unsplash.jpg","26","","","","","","","","","","","","","","","","","","","","","","","","","","","","","","","","","","","","","","","",""
"","rating","","html-slider-response","31","15901","0.0-30.0","0","0","2V2GG","People","","168","","","","","50","34","oliver-johnson-1TUIcKob7Zs-unsplash.jpg","27","","","","","","","","","","","","","","","","","","","","","","","","","","","","","","","","","","","","","","","",""
"","rating","","html-slider-response","32","16077","0.0-31.0","0","0","2V2GG","People","","175","","","","","50","14","freddy-kearney-o-ioeoATbIM-unsplash.jpg","28","","","","","","","","","","","","","","","","","","","","","","","","","","","","","","","","","","","","","","","",""
"","rating","","html-slider-response","33","16259","0.0-32.0","0","0","2V2GG","People","","180","","","","","50","10","charles-etoroma-95UF6LXe-Lo-unsplash.jpg","29","","","","","","","","","","","","","","","","","","","","","","","","","","","","","","","","","","","","","","","",""
"","rating","","html-slider-response","34","16413","0.0-33.0","0","0","2V2GG","People","","152","","","","","50","25","joseph-gonzalez-iFgRcqHznqg-unsplash.jpg","30","","","","","","","","","","","","","","","","","","","","","","","","","","","","","","","","","","","","","","","",""
"","rating","","html-slider-response","35","16593","0.0-34.0","0","0","2V2GG","People","","178","","","","","50","28","justin-chen-J7Cf1Gch49E-unsplash.jpg","31","","","","","","","","","","","","","","","","","","","","","","","","","","","","","","","","","","","","","","","",""
"","rating","","html-slider-response","36","16771","0.0-35.0","0","0","2V2GG","People","","176","","","","","50","41","prince-akachi-i2hoD-C2RUA-unsplash.jpg","32","","","","","","","","","","","","","","","","","","","","","","","","","","","","","","","","","","","","","","","",""
"","rating","","html-slider-response","37","16948","0.0-36.0","0","0","2V2GG","People","","175","","","","","50","9","carlos-andres-gomez-vJuk8Y86mRw-unsplash.jpg","33","","","","","","","","","","","","","","","","","","","","","","","","","","","","","","","","","","","","","","","",""
"","rating","","html-slider-response","38","17138","0.0-37.0","0","0","2V2GG","People","","189","","","","","50","24","joel-mott-LaK153ghdig-unsplash.jpg","34","","","","","","","","","","","","","","","","","","","","","","","","","","","","","","","","","","","","","","","",""
"","rating","","html-slider-response","39","17328","0.0-38.0","0","0","2V2GG","People","","188","","","","","50","8","bruce-dixon-3M9WJQVHzog-unsplash.jpg","35","","","","","","","","","","","","","","","","","","","","","","","","","","","","","","","","","","","","","","","",""
"","rating","","html-slider-response","40","17497","0.0-39.0","0","0","2V2GG","People","","168","","","","","50","12","daniel-rigdon-dXmXKPP2L4E-unsplash.jpg","36","","","","","","","","","","","","","","","","","","","","","","","","","","","","","","","","","","","","","","","",""
"","rating","","html-slider-response","41","17674","0.0-40.0","0","0","2V2GG","People","","176","","","","","50","17","gleb-lukomets-paBzWCPN23k-unsplash.jpg","37","","","","","","","","","","","","","","","","","","","","","","","","","","","","","","","","","","","","","","","",""
"","rating","","html-slider-response","42","17863","0.0-41.0","0","0","2V2GG","People","","187","","","","","50","13","erik-lucatero-d2MSDujJl2g-unsplash.jpg","38","","","","","","","","","","","","","","","","","","","","","","","","","","","","","","","","","","","","","","","",""
"","rating","","html-slider-response","43","18043","0.0-42.0","0","0","2V2GG","People","","179","","","","","50","44","rikonavt-HQjfrvdTfak-unsplash.jpg","39","","","","","","","","","","","","","","","","","","","","","","","","","","","","","","","","","","","","","","","",""
"","rating","","html-slider-response","44","18221","0.0-43.0","0","0","2V2GG","People","","176","","","","","50","4","barna-bartis-2x3vfVxwR7o-unsplash.jpg","40","","","","","","","","","","","","","","","","","","","","","","","","","","","","","","","","","","","","","","","",""
"","rating","","html-slider-response","45","18423","0.0-44.0","0","0","2V2GG","People","","200","","","","","50","1","aiony-haust-jmATI5Q_YgY-unsplash.jpg","41","","","","","","","","","","","","","","","","","","","","","","","","","","","","","","","","","","","","","","","",""
"","rating","","html-slider-response","46","18611","0.0-45.0","0","0","2V2GG","People","","186","","","","","50","49","vicky-hladynets-_gDoyVv5F4c-unsplash.jpg","42","","","","","","","","","","","","","","","","","","","","","","","","","","","","","","","","","","","","","","","",""
"","rating","","html-slider-response","47","18788","0.0-46.0","0","0","2V2GG","People","","175","","","","","50","32","nathan-dumlao-ger61_TX6oI-unsplash.jpg","43","","","","","","","","","","","","","","","","","","","","","","","","","","","","","","","","","","","","","","","",""
"","rating","","html-slider-response","48","18990","0.0-47.0","0","0","2V2GG","People","","200","","","","","50","30","matheus-ferrero-pg_WCHWSdT8-unsplash.jpg","44","","","","","","","","","","","","","","","","","","","","","","","","","","","","","","","","","","","","","","","",""
"","rating","","html-slider-response","49","19190","0.0-48.0","0","0","2V2GG","People","","198","","","","","50","7","brooke-cagle-HRZUzoX1e6w-unsplash.jpg","45","","","","","","","","","","","","","","","","","","","","","","","","","","","","","","","","","","","","","","","",""
"","rating","","html-slider-response","50","19513","0.0-49.0","0","0","2V2GG","People","","321","","","","","50","20","houcine-ncib-B4TjXnI0Y2c-unsplash.jpg","46","","","","","","","","","","","","","","","","","","","","","","","","","","","","","","","","","","","","","","","",""
"","rating","","html-slider-response","51","20017","0.0-50.0","0","0","2V2GG","People","","503","","","","","50","2","arjunsyah-TBUA5KHJn6k-unsplash.jpg","47","","","","","","","","","","","","","","","","","","","","","","","","","","","","","","","","","","","","","","","",""
"","rating","","html-slider-response","52","20597","0.0-51.0","0","0","2V2GG","People","","578","","","","","50","48","velizar-ivanov-7ktP9yZA1g4-unsplash.jpg","48","","","","","","","","","","","","","","","","","","","","","","","","","","","","","","","","","","","","","","","",""
"","rating","","html-slider-response","53","21411","0.0-52.0","0","0","2V2GG","People","","812","","","","","50","19","ha-nguy-n-OFSQ6bHjFjs-unsplash.jpg","49","","","","","","","","","","","","","","","","","","","","","","","","","","","","","","","","","","","","","","","",""
"","deliberation_instructions","","instructions","54","25449","0.0-53.0-0.0","0","0","2V2GG","People","[{""page_index"":0,""viewing_time"":1359},{""page_index"":1,""viewing_time"":455},{""page_index"":2,""viewing_time"":571},{""page_index"":3,""viewing_time"":1047},{""page_index"":4,""viewing_time"":603}]","4036","","","","","","","","","","","","","","","","","","","","","","","","","","","","","","","","","","","","","","","","","","","","","","","",""
"","","","survey-multi-choice","55","30536","0.0-53.0-1.0","0","0","2V2GG","People","","5082","{""Q0"":""True"",""Q1"":""True"",""Q2"":""Consider carefully and take your time (up to 10 seconds)"",""Q3"":""True"",""Q4"":""D""}","deliberation_comprehension_check","0","","","","","","","","","","","","","","","","","","","","","","","","","","","","","","","","","","","","","","","","","","","","",""
"","start_phase","","html-keyboard-response","56","31691","0.0-54.0","0","0","2V2GG","People","","1154","","","","78","","","","","","","","","","","","","","","","","","","","","","","","","","","","","","","","","","","","","","","","","","","",""
"","first_deliberation_block","","html-keyboard-response","57","32260","0.0-55.0","0","0","2V2GG","People","","567","","","","78","","","","","","","","","","","","","","","","","","","","","","","","","","","","","","","","","","","","","","","","","","","",""
"","fixation","","html-keyboard-response","58","33261","0.0-56.0-0.0","0","0","2V2GG","People","","null","","","","null","","","","","","","","","","","","","","","","","","","","","","","","","","","","","","","","","","","","","","","","","","","",""
"","deliberation","","html-keyboard-response","59","34584","0.0-56.0-1.0","0","0","2V2GG","People","","1320","","","","75","","","","0","24","14","0","-1","50","50","joel-mott-LaK153ghdig-unsplash.jpg","freddy-kearney-o-ioeoATbIM-unsplash.jpg","1","0","14","24","","","","","","","","","","","","","","","","","","","","","","","","","","","",""
"","choice_confirmation","","html-keyboard-response","60","35088","0.0-56.0-2.0-0.0","0","0","2V2GG","People","","null","","","","null","","","","0","24","14","","","","","","","","","","","","","","","","","","","","","","","","","","","","","","","","","","","","","",""
"","fixation","","html-keyboard-response","61","36093","0.0-57.0-0.0","0","0","2V2GG","People","","null","","","","null","","","","","","","","","","","","","","","","","","","","","","","","","","","","","","","","","","","","","","","","","","","",""
"","deliberation","","html-keyboard-response","62","37923","0.0-57.0-1.0","0","0","2V2GG","People","","1828","","","","68","","","","1","9","16","0","-1","50","50","carlos-andres-gomez-vJuk8Y86mRw-unsplash.jpg","giano-currie-5-9YOsmf8IQ-unsplash.jpg","1","1","9","16","","","","","","","","","","","","","","","","","","","","","","","","","","","",""
"","choice_confirmation","","html-keyboard-response","63","38426","0.0-57.0-2.0-0.0","0","0","2V2GG","People","","null","","","","null","","","","1","9","16","","","","","","","","","","","","","","","","","","","","","","","","","","","","","","","","","","","","","",""
"","fixation","","html-keyboard-response","64","39429","0.0-58.0-0.0","0","0","2V2GG","People","","null","","","","null","","","","","","","","","","","","","","","","","","","","","","","","","","","","","","","","","","","","","","","","","","","",""
"","deliberation","","html-keyboard-response","65","39944","0.0-58.0-1.0","0","0","2V2GG","People","","514","","","","68","","","","2","47","18","1","1","50","50","tyler-nix-ZGa9d1a_4tA-unsplash.jpg","good-faces-xmSWVeGEnJw-unsplash.jpg","1","1","47","18","","","","","","","","","","","","","","","","","","","","","","","","","","","",""
"","choice_confirmation","","html-keyboard-response","66","40447","0.0-58.0-2.0-0.0","0","0","2V2GG","People","","null","","","","null","","","","2","47","18","","","","","","","","","","","","","","","","","","","","","","","","","","","","","","","","","","","","","",""
"","explain_trial","","survey-text","67","42118","0.0-58.0-5.0-0.0","0","0","2V2GG","People","","1669","{""Q0"":""""}","","","","","","","2","47","18","","","","","","","","","","","{""Q0"":""""}","","","","","","","","","","","","","","","","","","","","","","","","","","",""
"","fixation","","html-keyboard-response","68","43124","0.0-59.0-0.0","0","0","2V2GG","People","","null","","","","null","","","","","","","","","","","","","","","","","","","","","","","","","","","","","","","","","","","","","","","","","","","",""
"","deliberation","","html-keyboard-response","69","43468","0.0-59.0-1.0","0","0","2V2GG","People","","342","","","","75","","","","3","25","21","1","1","50","50","joseph-gonzalez-iFgRcqHznqg-unsplash.jpg","jessica-felicio-_cvwXhGqG-o-unsplash.jpg","1","0","21","25","","","","","","","","","","","","","","","","","","","","","","","","","","","",""
"","choice_confirmation","","html-keyboard-response","70","43973","0.0-59.0-2.0-0.0","0","0","2V2GG","People","","null","","","","null","","","","3","25","21","","","","","","","","","","","","","","","","","","","","","","","","","","","","","","","","","","","","","",""
"","explain_trial","","survey-text","71","44893","0.0-59.0-5.0-0.0","0","0","2V2GG","People","","919","{""Q0"":""""}","","","","","","","3","25","21","","","","","","","","","","","{""Q0"":""""}","","","","","","","","","","","","","","","","","","","","","","","","","","",""
"","fixation","","html-keyboard-response","72","45897","0.0-60.0-0.0","0","0","2V2GG","People","","null","","","","null","","","","","","","","","","","","","","","","","","","","","","","","","","","","","","","","","","","","","","","","","","","",""
"","deliberation","","html-keyboard-response","73","46233","0.0-60.0-1.0","0","0","2V2GG","People","","334","","","","68","","","","4","42","10","1","1","50","50","prince-akachi-l3IHXOdMyHQ-unsplash.jpg","charles-etoroma-95UF6LXe-Lo-unsplash.jpg","1","1","42","10","","","","","","","","","","","","","","","","","","","","","","","","","","","",""
"","choice_confirmation","","html-keyboard-response","74","46736","0.0-60.0-2.0-0.0","0","0","2V2GG","People","","null","","","","null","","","","4","42","10","","","","","","","","","","","","","","","","","","","","","","","","","","","","","","","","","","","","","",""
"","explain_trial","","survey-text","75","47418","0.0-60.0-5.0-0.0","0","0","2V2GG","People","","679","{""Q0"":""""}","","","","","","","4","42","10","","","","","","","","","","","{""Q0"":""""}","","","","","","","","","","","","","","","","","","","","","","","","","","",""
"","fixation","","html-keyboard-response","76","48421","0.0-61.0-0.0","0","0","2V2GG","People","","null","","","","null","","","","","","","","","","","","","","","","","","","","","","","","","","","","","","","","","","","","","","","","","","","",""
"","deliberation","","html-keyboard-response","77","48834","0.0-61.0-1.0","0","0","2V2GG","People","","411","","","","68","","","","5","8","41","0","-1","50","50","bruce-dixon-3M9WJQVHzog-unsplash.jpg","prince-akachi-i2hoD-C2RUA-unsplash.jpg","1","1","8","41","","","","","","","","","","","","","","","","","","","","","","","","","","","",""
"","choice_confirmation","","html-keyboard-response","78","49338","0.0-61.0-2.0-0.0","0","0","2V2GG","People","","null","","","","null","","","","5","8","41","","","","","","","","","","","","","","","","","","","","","","","","","","","","","","","","","","","","","",""
"","fixation","","html-keyboard-response","79","50343","0.0-62.0-0.0","0","0","2V2GG","People","","null","","","","null","","","","","","","","","","","","","","","","","","","","","","","","","","","","","","","","","","","","","","","","","","","",""
"","deliberation","","html-keyboard-response","80","50812","0.0-62.0-1.0","0","0","2V2GG","People","","468","","","","68","","","","6","12","45","0","-1","50","50","daniel-rigdon-dXmXKPP2L4E-unsplash.jpg","sarah-noltner-pL5ZzPp1zqg-unsplash.jpg","1","1","12","45","","","","","","","","","","","","","","","","","","","","","","","","","","","",""
"","choice_confirmation","","html-keyboard-response","81","51314","0.0-62.0-2.0-0.0","0","0","2V2GG","People","","null","","","","null","","","","6","12","45","","","","","","","","","","","","","","","","","","","","","","","","","","","","","","","","","","","","","",""
"","fixation","","html-keyboard-response","82","52320","0.0-63.0-0.0","0","0","2V2GG","People","","null","","","","null","","","","","","","","","","","","","","","","","","","","","","","","","","","","","","","","","","","","","","","","","","","",""
"","deliberation","","html-keyboard-response","83","52785","0.0-63.0-1.0","0","0","2V2GG","People","","463","","","","68","","","","7","34","27","1","1","50","50","oliver-johnson-1TUIcKob7Zs-unsplash.jpg","jurica-koletic-7YVZYZeITc8-unsplash.jpg","1","1","34","27","","","","","","","","","","","","","","","","","","","","","","","","","","","",""
"","choice_confirmation","","html-keyboard-response","84","53289","0.0-63.0-2.0-0.0","0","0","2V2GG","People","","null","","","","null","","","","7","34","27","","","","","","","","","","","","","","","","","","","","","","","","","","","","","","","","","","","","","",""
"","explain_trial","","survey-text","85","53912","0.0-63.0-5.0-0.0","0","0","2V2GG","People","","621","{""Q0"":""""}","","","","","","","7","34","27","","","","","","","","","","","{""Q0"":""""}","","","","","","","","","","","","","","","","","","","","","","","","","","",""
"","fixation","","html-keyboard-response","86","54916","0.0-64.0-0.0","0","0","2V2GG","People","","null","","","","null","","","","","","","","","","","","","","","","","","","","","","","","","","","","","","","","","","","","","","","","","","","",""
"","deliberation","","html-keyboard-response","87","55992","0.0-64.0-1.0","0","0","2V2GG","People","","1075","","","","75","","","","8","37","35","1","1","50","50","pavel-anoshin-d0peGya6R5Y-unsplash.jpg","oliver-ragfelt-khV4fTy6-D8-unsplash.jpg","1","0","35","37","","","","","","","","","","","","","","","","","","","","","","","","","","","",""
"","choice_confirmation","","html-keyboard-response","88","56495","0.0-64.0-2.0-0.0","0","0","2V2GG","People","","null","","","","null","","","","8","37","35","","","","","","","","","","","","","","","","","","","","","","","","","","","","","","","","","","","","","",""
"","explain_trial","","survey-text","89","57124","0.0-64.0-5.0-0.0","0","0","2V2GG","People","","626","{""Q0"":""""}","","","","","","","8","37","35","","","","","","","","","","","{""Q0"":""""}","","","","","","","","","","","","","","","","","","","","","","","","","","",""
"","fixation","","html-keyboard-response","90","58130","0.0-65.0-0.0","0","0","2V2GG","People","","null","","","","null","","","","","","","","","","","","","","","","","","","","","","","","","","","","","","","","","","","","","","","","","","","",""
"","deliberation","","html-keyboard-response","91","59874","0.0-65.0-1.0","0","0","2V2GG","People","","1742","","","","75","","","","9","26","22","0","1","50","50","juri-gianfrancesco-9EZadYaMzk4-unsplash.jpg","jessica-radanavong-mrYkTuAesKE-unsplash.jpg","1","0","22","26","","","","","","","","","","","","","","","","","","","","","","","","","","","",""
"","choice_confirmation","","html-keyboard-response","92","60377","0.0-65.0-2.0-0.0","0","0","2V2GG","People","","null","","","","null","","","","9","26","22","","","","","","","","","","","","","","","","","","","","","","","","","","","","","","","","","","","","","",""
"","fixation","","html-keyboard-response","93","61381","0.0-66.0-0.0","0","0","2V2GG","People","","null","","","","null","","","","","","","","","","","","","","","","","","","","","","","","","","","","","","","","","","","","","","","","","","","",""
"","deliberation","","html-keyboard-response","94","64411","0.0-66.0-1.0","0","0","2V2GG","People","","3029","","","","68","","","","10","28","0","1","-1","50","50","justin-chen-J7Cf1Gch49E-unsplash.jpg","abstral-official-cyOKLSgkgCE-unsplash.jpg","1","1","28","0","","","","","","","","","","","","","","","","","","","","","","","","","","","",""
"","choice_confirmation","","html-keyboard-response","95","64915","0.0-66.0-2.0-0.0","0","0","2V2GG","People","","null","","","","null","","","","10","28","0","","","","","","","","","","","","","","","","","","","","","","","","","","","","","","","","","","","","","",""
"","explain_trial","","survey-text","96","65760","0.0-66.0-5.0-0.0","0","0","2V2GG","People","","843","{""Q0"":""""}","","","","","","","10","28","0","","","","","","","","","","","{""Q0"":""""}","","","","","","","","","","","","","","","","","","","","","","","","","","",""
"","fixation","","html-keyboard-response","97","66765","0.0-67.0-0.0","0","0","2V2GG","People","","null","","","","null","","","","","","","","","","","","","","","","","","","","","","","","","","","","","","","","","","","","","","","","","","","",""
"","deliberation","","html-keyboard-response","98","67033","0.0-67.0-1.0","0","0","2V2GG","People","","266","","","","68","","","","11","31","3","0","-1","50","50","mathilda-khoo-vLR0YP_otCo-unsplash.jpg","art-hauntington-jzY0KRJopEI-unsplash.jpg","1","1","31","3","","","","","","","","","","","","","","","","","","","","","","","","","","","",""
"","choice_confirmation","","html-keyboard-response","99","67537","0.0-67.0-2.0-0.0","0","0","2V2GG","People","","null","","","","null","","","","11","31","3","","","","","","","","","","","","","","","","","","","","","","","","","","","","","","","","","","","","","",""
"","deliberation_too_fast","","html-keyboard-response","100","69040","0.0-67.0-3.0-0.0","1","0","2V2GG","People","","null","","","","null","","","","11","","","","","","","","","","","","","","","","","","","","","","","","","","","","","","","","","","","","","","","",""
"","practice_deliberation_again","","html-keyboard-response","101","70228","0.0-67.0-6.0-0.0","0","0","2V2GG","People","","1186","","","","78","","","","","","","","","","","","","","","","","","","","","","","","","","","","","","","","","","","","","","","","","","","",""
"","fixation","","html-keyboard-response","102","71231","0.0-68.0-0.0","0","0","2V2GG","People","","null","","","","null","","","","","","","","","","","","","","","","","","","","","","","","","","","","","","","","","","","","","","","","","","","",""
"","deliberation","","html-keyboard-response","103","71668","0.0-68.0-1.0","0","0","2V2GG","People","","436","","","","75","","","","12","42","10","0","1","50","50","prince-akachi-l3IHXOdMyHQ-unsplash.jpg","charles-etoroma-95UF6LXe-Lo-unsplash.jpg","2","0","10","42","","","","","","","","","","","","","","","","","","","","","","","","","","","",""
"","choice_confirmation","","html-keyboard-response","104","72171","0.0-68.0-2.0-0.0","0","0","2V2GG","People","","null","","","","null","","","","12","42","10","","","","","","","","","","","","","","","","","","","","","","","","","","","","","","","","","","","","","",""
"","fixation","","html-keyboard-response","105","73177","0.0-69.0-0.0","0","0","2V2GG","People","","null","","","","null","","","","","","","","","","","","","","","","","","","","","","","","","","","","","","","","","","","","","","","","","","","",""
"","deliberation","","html-keyboard-response","106","73578","0.0-69.0-1.0","0","0","2V2GG","People","","399","","","","68","","","","13","12","45","1","-1","50","50","daniel-rigdon-dXmXKPP2L4E-unsplash.jpg","sarah-noltner-pL5ZzPp1zqg-unsplash.jpg","2","1","12","45","","","","","","","","","","","","","","","","","","","","","","","","","","","",""
"","choice_confirmation","","html-keyboard-response","107","74079","0.0-69.0-2.0-0.0","0","0","2V2GG","People","","null","","","","null","","","","13","12","45","","","","","","","","","","","","","","","","","","","","","","","","","","","","","","","","","","","","","",""
"","explain_trial","","survey-text","108","75069","0.0-69.0-5.0-0.0","0","0","2V2GG","People","","988","{""Q0"":""""}","","","","","","","13","12","45","","","","","","","","","","","{""Q0"":""""}","","","","","","","","","","","","","","","","","","","","","","","","","","",""
"","fixation","","html-keyboard-response","109","76072","0.0-70.0-0.0","0","0","2V2GG","People","","null","","","","null","","","","","","","","","","","","","","","","","","","","","","","","","","","","","","","","","","","","","","","","","","","",""
"","deliberation","","html-keyboard-response","110","76730","0.0-70.0-1.0","0","0","2V2GG","People","","656","","","","68","","","","14","34","27","0","1","50","50","oliver-johnson-1TUIcKob7Zs-unsplash.jpg","jurica-koletic-7YVZYZeITc8-unsplash.jpg","2","1","34","27","","","","","","","","","","","","","","","","","","","","","","","","","","","",""
"","choice_confirmation","","html-keyboard-response","111","77233","0.0-70.0-2.0-0.0","0","0","2V2GG","People","","null","","","","null","","","","14","34","27","","","","","","","","","","","","","","","","","","","","","","","","","","","","","","","","","","","","","",""
"","fixation","","html-keyboard-response","112","78235","0.0-71.0-0.0","0","0","2V2GG","People","","null","","","","null","","","","","","","","","","","","","","","","","","","","","","","","","","","","","","","","","","","","","","","","","","","",""
"","deliberation","","html-keyboard-response","113","78612","0.0-71.0-1.0","0","0","2V2GG","People","","375","","","","68","","","","15","37","35","0","1","50","50","pavel-anoshin-d0peGya6R5Y-unsplash.jpg","oliver-ragfelt-khV4fTy6-D8-unsplash.jpg","2","1","37","35","","","","","","","","","","","","","","","","","","","","","","","","","","","",""
"","choice_confirmation","","html-keyboard-response","114","79114","0.0-71.0-2.0-0.0","0","0","2V2GG","People","","null","","","","null","","","","15","37","35","","","","","","","","","","","","","","","","","","","","","","","","","","","","","","","","","","","","","",""
"","fixation","","html-keyboard-response","115","80121","0.0-72.0-0.0","0","0","2V2GG","People","","null","","","","null","","","","","","","","","","","","","","","","","","","","","","","","","","","","","","","","","","","","","","","","","","","",""
"","deliberation","","html-keyboard-response","116","80668","0.0-72.0-1.0","0","0","2V2GG","People","","545","","","","68","","","","16","47","18","0","1","50","50","tyler-nix-ZGa9d1a_4tA-unsplash.jpg","good-faces-xmSWVeGEnJw-unsplash.jpg","2","1","47","18","","","","","","","","","","","","","","","","","","","","","","","","","","","",""
"","choice_confirmation","","html-keyboard-response","117","81170","0.0-72.0-2.0-0.0","0","0","2V2GG","People","","null","","","","null","","","","16","47","18","","","","","","","","","","","","","","","","","","","","","","","","","","","","","","","","","","","","","",""
"","fixation","","html-keyboard-response","118","82175","0.0-73.0-0.0","0","0","2V2GG","People","","null","","","","null","","","","","","","","","","","","","","","","","","","","","","","","","","","","","","","","","","","","","","","","","","","",""
"","deliberation","","html-keyboard-response","119","82567","0.0-73.0-1.0","0","0","2V2GG","People","","390","","","","68","","","","17","9","16","1","-1","50","50","carlos-andres-gomez-vJuk8Y86mRw-unsplash.jpg","giano-currie-5-9YOsmf8IQ-unsplash.jpg","2","1","9","16","","","","","","","","","","","","","","","","","","","","","","","","","","","",""
"","choice_confirmation","","html-keyboard-response","120","83072","0.0-73.0-2.0-0.0","0","0","2V2GG","People","","null","","","","null","","","","17","9","16","","","","","","","","","","","","","","","","","","","","","","","","","","","","","","","","","","","","","",""
"","explain_trial","","survey-text","121","84338","0.0-73.0-5.0-0.0","0","0","2V2GG","People","","1264","{""Q0"":""""}","","","","","","","17","9","16","","","","","","","","","","","{""Q0"":""""}","","","","","","","","","","","","","","","","","","","","","","","","","","",""
"","fixation","","html-keyboard-response","122","85340","0.0-74.0-0.0","0","0","2V2GG","People","","null","","","","null","","","","","","","","","","","","","","","","","","","","","","","","","","","","","","","","","","","","","","","","","","","",""
"","deliberation","","html-keyboard-response","123","85731","0.0-74.0-1.0","0","0","2V2GG","People","","389","","","","68","","","","18","28","0","0","-1","50","50","justin-chen-J7Cf1Gch49E-unsplash.jpg","abstral-official-cyOKLSgkgCE-unsplash.jpg","2","1","28","0","","","","","","","","","","","","","","","","","","","","","","","","","","","",""
"","choice_confirmation","","html-keyboard-response","124","86233","0.0-74.0-2.0-0.0","0","0","2V2GG","People","","null","","","","null","","","","18","28","0","","","","","","","","","","","","","","","","","","","","","","","","","","","","","","","","","","","","","",""
"","fixation","","html-keyboard-response","125","87237","0.0-75.0-0.0","0","0","2V2GG","People","","null","","","","null","","","","","","","","","","","","","","","","","","","","","","","","","","","","","","","","","","","","","","","","","","","",""
"","deliberation","","html-keyboard-response","126","87787","0.0-75.0-1.0","0","0","2V2GG","People","","548","","","","68","","","","19","25","21","0","1","50","50","joseph-gonzalez-iFgRcqHznqg-unsplash.jpg","jessica-felicio-_cvwXhGqG-o-unsplash.jpg","2","1","25","21","","","","","","","","","","","","","","","","","","","","","","","","","","","",""
"","choice_confirmation","","html-keyboard-response","127","88290","0.0-75.0-2.0-0.0","0","0","2V2GG","People","","null","","","","null","","","","19","25","21","","","","","","","","","","","","","","","","","","","","","","","","","","","","","","","","","","","","","",""
"","fixation","","html-keyboard-response","128","89296","0.0-76.0-0.0","0","0","2V2GG","People","","null","","","","null","","","","","","","","","","","","","","","","","","","","","","","","","","","","","","","","","","","","","","","","","","","",""
"","deliberation","","html-keyboard-response","129","89682","0.0-76.0-1.0","0","0","2V2GG","People","","384","","","","68","","","","20","31","3","1","-1","50","50","mathilda-khoo-vLR0YP_otCo-unsplash.jpg","art-hauntington-jzY0KRJopEI-unsplash.jpg","2","1","31","3","","","","","","","","","","","","","","","","","","","","","","","","","","","",""
"","choice_confirmation","","html-keyboard-response","130","90184","0.0-76.0-2.0-0.0","0","0","2V2GG","People","","null","","","","null","","","","20","31","3","","","","","","","","","","","","","","","","","","","","","","","","","","","","","","","","","","","","","",""
"","explain_trial","","survey-text","131","91431","0.0-76.0-5.0-0.0","0","0","2V2GG","People","","1245","{""Q0"":""""}","","","","","","","20","31","3","","","","","","","","","","","{""Q0"":""""}","","","","","","","","","","","","","","","","","","","","","","","","","","",""
"","fixation","","html-keyboard-response","132","92434","0.0-77.0-0.0","0","0","2V2GG","People","","null","","","","null","","","","","","","","","","","","","","","","","","","","","","","","","","","","","","","","","","","","","","","","","","","",""
"","deliberation","","html-keyboard-response","133","92892","0.0-77.0-1.0","0","0","2V2GG","People","","456","","","","68","","","","21","24","14","1","-1","50","50","joel-mott-LaK153ghdig-unsplash.jpg","freddy-kearney-o-ioeoATbIM-unsplash.jpg","2","1","24","14","","","","","","","","","","","","","","","","","","","","","","","","","","","",""
"","choice_confirmation","","html-keyboard-response","134","93394","0.0-77.0-2.0-0.0","0","0","2V2GG","People","","null","","","","null","","","","21","24","14","","","","","","","","","","","","","","","","","","","","","","","","","","","","","","","","","","","","","",""
"","explain_trial","","survey-text","135","94971","0.0-77.0-5.0-0.0","0","0","2V2GG","People","","1575","{""Q0"":""""}","","","","","","","21","24","14","","","","","","","","","","","{""Q0"":""""}","","","","","","","","","","","","","","","","","","","","","","","","","","",""
"","fixation","","html-keyboard-response","136","95974","0.0-78.0-0.0","0","0","2V2GG","People","","null","","","","null","","","","","","","","","","","","","","","","","","","","","","","","","","","","","","","","","","","","","","","","","","","",""
"","deliberation","","html-keyboard-response","137","96310","0.0-78.0-1.0","0","0","2V2GG","People","","335","","","","68","","","","22","8","41","1","-1","50","50","bruce-dixon-3M9WJQVHzog-unsplash.jpg","prince-akachi-i2hoD-C2RUA-unsplash.jpg","2","1","8","41","","","","","","","","","","","","","","","","","","","","","","","","","","","",""
"","choice_confirmation","","html-keyboard-response","138","96815","0.0-78.0-2.0-0.0","0","0","2V2GG","People","","null","","","","null","","","","22","8","41","","","","","","","","","","","","","","","","","","","","","","","","","","","","","","","","","","","","","",""
"","explain_trial","","survey-text","139","98393","0.0-78.0-5.0-0.0","0","0","2V2GG","People","","1576","{""Q0"":""""}","","","","","","","22","8","41","","","","","","","","","","","{""Q0"":""""}","","","","","","","","","","","","","","","","","","","","","","","","","","",""
"","fixation","","html-keyboard-response","140","99399","0.0-79.0-0.0","0","0","2V2GG","People","","null","","","","null","","","","","","","","","","","","","","","","","","","","","","","","","","","","","","","","","","","","","","","","","","","",""
"","deliberation","","html-keyboard-response","141","99844","0.0-79.0-1.0","0","0","2V2GG","People","","444","","","","68","","","","23","26","22","1","1","50","50","juri-gianfrancesco-9EZadYaMzk4-unsplash.jpg","jessica-radanavong-mrYkTuAesKE-unsplash.jpg","2","1","26","22","","","","","","","","","","","","","","","","","","","","","","","","","","","",""
"","choice_confirmation","","html-keyboard-response","142","100350","0.0-79.0-2.0-0.0","0","0","2V2GG","People","","null","","","","null","","","","23","26","22","","","","","","","","","","","","","","","","","","","","","","","","","","","","","","","","","","","","","",""
"","explain_trial","","survey-text","143","101555","0.0-79.0-5.0-0.0","0","0","2V2GG","People","","1203","{""Q0"":""""}","","","","","","","23","26","22","","","","","","","","","","","{""Q0"":""""}","","","","","","","","","","","","","","","","","","","","","","","","","","",""
"","start_critical_deliberation_block","","html-keyboard-response","144","102979","0.0-79.0-7.0-0.0","0","0","2V2GG","People","","1422","","","","78","","","","","","","","","","","","","","","","","","","","","","","","","","","","","","","","","","","","","","","","","","","",""
"","fixation","","html-keyboard-response","145","103981","0.0-80.0-0.0","0","0","2V2GG","People","","null","","","","null","","","","","","","","","","","","","","","","","","","","","","","","","","","","","","","","","","","","","","","","","","","",""
"","deliberation","","html-keyboard-response","146","104229","0.0-80.0-1.0","0","0","2V2GG","People","","246","","","","75","","","","24","42","10","0","1","50","50","prince-akachi-l3IHXOdMyHQ-unsplash.jpg","charles-etoroma-95UF6LXe-Lo-unsplash.jpg","3","0","10","42","","","","","","","","","","","","","","","","","","","","","","","","","","","",""
"","choice_confirmation","","html-keyboard-response","147","104731","0.0-80.0-2.0-0.0","0","0","2V2GG","People","","null","","","","null","","","","24","42","10","","","","","","","","","","","","","","","","","","","","","","","","","","","","","","","","","","","","","",""
"","deliberation_too_fast","","html-keyboard-response","148","106238","0.0-80.0-3.0-0.0","1","0","2V2GG","People","","null","","","","null","","","","24","","","","","","","","","","","","","","","","","","","","","","","","","","","","","","","","","","","","","","","",""
"","fixation","","html-keyboard-response","149","107241","0.0-81.0-0.0","0","0","2V2GG","People","","null","","","","null","","","","","","","","","","","","","","","","","","","","","","","","","","","","","","","","","","","","","","","","","","","",""
"","deliberation","","html-keyboard-response","150","107622","0.0-81.0-1.0","0","0","2V2GG","People","","379","","","","75","","","","25","34","27","0","1","50","50","oliver-johnson-1TUIcKob7Zs-unsplash.jpg","jurica-koletic-7YVZYZeITc8-unsplash.jpg","3","0","27","34","","","","","","","","","","","","","","","","","","","","","","","","","","","",""
"","choice_confirmation","","html-keyboard-response","151","108124","0.0-81.0-2.0-0.0","0","0","2V2GG","People","","null","","","","null","","","","25","34","27","","","","","","","","","","","","","","","","","","","","","","","","","","","","","","","","","","","","","",""
"","fixation","","html-keyboard-response","152","109128","0.0-82.0-0.0","0","0","2V2GG","People","","null","","","","null","","","","","","","","","","","","","","","","","","","","","","","","","","","","","","","","","","","","","","","","","","","",""
"","deliberation","","html-keyboard-response","153","109517","0.0-82.0-1.0","0","0","2V2GG","People","","387","","","","75","","","","26","37","35","0","1","50","50","pavel-anoshin-d0peGya6R5Y-unsplash.jpg","oliver-ragfelt-khV4fTy6-D8-unsplash.jpg","3","0","35","37","","","","","","","","","","","","","","","","","","","","","","","","","","","",""
"","choice_confirmation","","html-keyboard-response","154","110020","0.0-82.0-2.0-0.0","0","0","2V2GG","People","","null","","","","null","","","","26","37","35","","","","","","","","","","","","","","","","","","","","","","","","","","","","","","","","","","","","","",""
"","fixation","","html-keyboard-response","155","111025","0.0-83.0-0.0","0","0","2V2GG","People","","null","","","","null","","","","","","","","","","","","","","","","","","","","","","","","","","","","","","","","","","","","","","","","","","","",""
"","deliberation","","html-keyboard-response","156","113485","0.0-83.0-1.0","0","0","2V2GG","People","","2458","","","","75","","","","27","31","3","0","-1","50","50","mathilda-khoo-vLR0YP_otCo-unsplash.jpg","art-hauntington-jzY0KRJopEI-unsplash.jpg","3","0","3","31","","","","","","","","","","","","","","","","","","","","","","","","","","","",""
"","choice_confirmation","","html-keyboard-response","157","113989","0.0-83.0-2.0-0.0","0","0","2V2GG","People","","null","","","","null","","","","27","31","3","","","","","","","","","","","","","","","","","","","","","","","","","","","","","","","","","","","","","",""
"","fixation","","html-keyboard-response","158","114994","0.0-84.0-0.0","0","0","2V2GG","People","","null","","","","null","","","","","","","","","","","","","","","","","","","","","","","","","","","","","","","","","","","","","","","","","","","",""
"","deliberation","","html-keyboard-response","159","115636","0.0-84.0-1.0","0","0","2V2GG","People","","640","","","","75","","","","28","12","45","0","-1","50","50","daniel-rigdon-dXmXKPP2L4E-unsplash.jpg","sarah-noltner-pL5ZzPp1zqg-unsplash.jpg","3","0","45","12","","","","","","","","","","","","","","","","","","","","","","","","","","","",""
"","choice_confirmation","","html-keyboard-response","160","116141","0.0-84.0-2.0-0.0","0","0","2V2GG","People","","null","","","","null","","","","28","12","45","","","","","","","","","","","","","","","","","","","","","","","","","","","","","","","","","","","","","",""
"","fixation","","html-keyboard-response","161","117147","0.0-85.0-0.0","0","0","2V2GG","People","","null","","","","null","","","","","","","","","","","","","","","","","","","","","","","","","","","","","","","","","","","","","","","","","","","",""
"","deliberation","","html-keyboard-response","162","117613","0.0-85.0-1.0","0","0","2V2GG","People","","464","","","","75","","","","29","47","18","0","1","50","50","tyler-nix-ZGa9d1a_4tA-unsplash.jpg","good-faces-xmSWVeGEnJw-unsplash.jpg","3","0","18","47","","","","","","","","","","","","","","","","","","","","","","","","","","","",""
"","choice_confirmation","","html-keyboard-response","163","118115","0.0-85.0-2.0-0.0","0","0","2V2GG","People","","null","","","","null","","","","29","47","18","","","","","","","","","","","","","","","","","","","","","","","","","","","","","","","","","","","","","",""
"","fixation","","html-keyboard-response","164","119121","0.0-86.0-0.0","0","0","2V2GG","People","","null","","","","null","","","","","","","","","","","","","","","","","","","","","","","","","","","","","","","","","","","","","","","","","","","",""
"","deliberation","","html-keyboard-response","165","119175","0.0-86.0-1.0","0","0","2V2GG","People","","50","","","","75","","","","30","26","22","0","1","50","50","juri-gianfrancesco-9EZadYaMzk4-unsplash.jpg","jessica-radanavong-mrYkTuAesKE-unsplash.jpg","3","0","22","26","","","","","","","","","","","","","","","","","","","","","","","","","","","",""
"","choice_confirmation","","html-keyboard-response","166","119678","0.0-86.0-2.0-0.0","0","0","2V2GG","People","","null","","","","null","","","","30","26","22","","","","","","","","","","","","","","","","","","","","","","","","","","","","","","","","","","","","","",""
"","deliberation_too_fast","","html-keyboard-response","167","121182","0.0-86.0-3.0-0.0","1","0","2V2GG","People","","null","","","","null","","","","30","","","","","","","","","","","","","","","","","","","","","","","","","","","","","","","","","","","","","","","",""
"","fixation","","html-keyboard-response","168","122184","0.0-87.0-0.0","0","0","2V2GG","People","","null","","","","null","","","","","","","","","","","","","","","","","","","","","","","","","","","","","","","","","","","","","","","","","","","",""
"","deliberation","","html-keyboard-response","169","123714","0.0-87.0-1.0","0","0","2V2GG","People","","1529","","","","75","","","","31","9","16","0","-1","50","50","carlos-andres-gomez-vJuk8Y86mRw-unsplash.jpg","giano-currie-5-9YOsmf8IQ-unsplash.jpg","3","0","16","9","","","","","","","","","","","","","","","","","","","","","","","","","","","",""
"","choice_confirmation","","html-keyboard-response","170","124217","0.0-87.0-2.0-0.0","0","0","2V2GG","People","","null","","","","null","","","","31","9","16","","","","","","","","","","","","","","","","","","","","","","","","","","","","","","","","","","","","","",""
"","fixation","","html-keyboard-response","171","125221","0.0-88.0-0.0","0","0","2V2GG","People","","null","","","","null","","","","","","","","","","","","","","","","","","","","","","","","","","","","","","","","","","","","","","","","","","","",""
"","deliberation","","html-keyboard-response","172","125829","0.0-88.0-1.0","0","0","2V2GG","People","","605","","","","75","","","","32","24","14","0","-1","50","50","joel-mott-LaK153ghdig-unsplash.jpg","freddy-kearney-o-ioeoATbIM-unsplash.jpg","3","0","14","24","","","","","","","","","","","","","","","","","","","","","","","","","","","",""
"","choice_confirmation","","html-keyboard-response","173","126334","0.0-88.0-2.0-0.0","0","0","2V2GG","People","","null","","","","null","","","","32","24","14","","","","","","","","","","","","","","","","","","","","","","","","","","","","","","","","","","","","","",""
"","fixation","","html-keyboard-response","174","127339","0.0-89.0-0.0","0","0","2V2GG","People","","null","","","","null","","","","","","","","","","","","","","","","","","","","","","","","","","","","","","","","","","","","","","","","","","","",""
"","deliberation","","html-keyboard-response","175","127613","0.0-89.0-1.0","0","0","2V2GG","People","","271","","","","75","","","","33","28","0","0","-1","50","50","justin-chen-J7Cf1Gch49E-unsplash.jpg","abstral-official-cyOKLSgkgCE-unsplash.jpg","3","0","0","28","","","","","","","","","","","","","","","","","","","","","","","","","","","",""
"","choice_confirmation","","html-keyboard-response","176","128117","0.0-89.0-2.0-0.0","0","0","2V2GG","People","","null","","","","null","","","","33","28","0","","","","","","","","","","","","","","","","","","","","","","","","","","","","","","","","","","","","","",""
"","deliberation_too_fast","","html-keyboard-response","177","129622","0.0-89.0-3.0-0.0","1","0","2V2GG","People","","null","","","","null","","","","33","","","","","","","","","","","","","","","","","","","","","","","","","","","","","","","","","","","","","","","",""
"","fixation","","html-keyboard-response","178","130629","0.0-90.0-0.0","0","0","2V2GG","People","","null","","","","null","","","","","","","","","","","","","","","","","","","","","","","","","","","","","","","","","","","","","","","","","","","",""
"","deliberation","","html-keyboard-response","179","132150","0.0-90.0-1.0","0","0","2V2GG","People","","1519","","","","75","","","","34","25","21","0","1","50","50","joseph-gonzalez-iFgRcqHznqg-unsplash.jpg","jessica-felicio-_cvwXhGqG-o-unsplash.jpg","3","0","21","25","","","","","","","","","","","","","","","","","","","","","","","","","","","",""
"","choice_confirmation","","html-keyboard-response","180","132652","0.0-90.0-2.0-0.0","0","0","2V2GG","People","","null","","","","null","","","","34","25","21","","","","","","","","","","","","","","","","","","","","","","","","","","","","","","","","","","","","","",""
"","fixation","","html-keyboard-response","181","133659","0.0-91.0-0.0","0","0","2V2GG","People","","null","","","","null","","","","","","","","","","","","","","","","","","","","","","","","","","","","","","","","","","","","","","","","","","","",""
"","deliberation","","html-keyboard-response","182","134178","0.0-91.0-1.0","0","0","2V2GG","People","","517","","","","75","","","","35","8","41","0","-1","50","50","bruce-dixon-3M9WJQVHzog-unsplash.jpg","prince-akachi-i2hoD-C2RUA-unsplash.jpg","3","0","41","8","","","","","","","","","","","","","","","","","","","","","","","","","","","",""
"","choice_confirmation","","html-keyboard-response","183","134687","0.0-91.0-2.0-0.0","0","0","2V2GG","People","","null","","","","null","","","","35","8","41","","","","","","","","","","","","","","","","","","","","","","","","","","","","","","","","","","","","","",""
"","reward_learning_instructions","","instructions","184","152539","0.0-92.0-0.0","0","0","2V2GG","People","[{""page_index"":0,""viewing_time"":16356},{""page_index"":1,""viewing_time"":756},{""page_index"":2,""viewing_time"":738}]","17850","","","","","","","","","","","","","","","","","","","","","","","","","","","","","","","","","","","","","","","","","","","","","","","",""
"","","","survey-multi-choice","185","158330","0.0-92.0-1.0","0","0","2V2GG","People","","5786","{""Q0"":""True"",""Q1"":""True"",""Q2"":""Press the space bar to see its outcome"",""Q3"":""Press the relevant key while the outcome is presented""}","reward_comprehension_check","0","","","","","","","","","","","","","","","","","","","","","","","","","","","","","","","","","","","","","","","","","","","","",""
"","start_phase","","html-keyboard-response","186","159577","0.0-93.0","0","0","2V2GG","People","","1245","","","","78","","","","","","","","","","","","","","","","","","","","","","","","","","","","","","","","","","","","","","","","","","","",""
"","fixation","","html-keyboard-response","187","160582","0.0-94.0","0","0","2V2GG","People","","null","","","","null","","","","","","","","","","","","","","","","","","","","","","","","","","","","","","","","","","","","","","","","","","","",""
"","see_reward","","html-keyboard-response","188","161063","0.0-95.0","0","0","2V2GG","People","","479","","","","32","","41","","0","","","","-1","","","","","1","","","","","0","479","","","","","","","","","","","","","","","","","","","","","","","","",""
"","reward_outcome","","html-keyboard-response","189","163067","0.0-96.0","0","0","2V2GG","People","","62","","","","38","","41","","0","","","","","","","","","","","","","","","","1","62","","","","","","","","","","","","","","","","","","","","","","",""
"","fixation","","html-keyboard-response","190","164071","0.0-99.0","0","0","2V2GG","People","","null","","","","null","","","","","","","","","","","","","","","","","","","","","","","","","","","","","","","","","","","","","","","","","","","",""
"","see_reward","","html-keyboard-response","191","164719","0.0-100.0","0","0","2V2GG","People","","646","","","","32","","0","","1","","","","-1","","","","","1","","","","","0","646","","","","","","","","","","","","","","","","","","","","","","","","",""
"","reward_outcome","","html-keyboard-response","192","166724","0.0-101.0","0","0","2V2GG","People","","53","","","","38","","0","","1","","","","","","","","","","","","","","","","1","53","","","","","","","","","","","","","","","","","","","","","","",""
"","fixation","","html-keyboard-response","193","167730","0.0-104.0","0","0","2V2GG","People","","null","","","","null","","","","","","","","","","","","","","","","","","","","","","","","","","","","","","","","","","","","","","","","","","","",""
"","see_reward","","html-keyboard-response","194","169127","0.0-105.0","0","0","2V2GG","People","","1395","","","","32","","21","","2","","","","1","","","","","1","","","","","160","1395","","","","","","","","","","","","","","","","","","","","","","","","",""
"","reward_outcome","","html-keyboard-response","195","171134","0.0-106.0","0","0","2V2GG","People","","35","","","","38","","21","","2","","","","","","","","","","","","","","","","1","35","","","","","","","","","","","","","","","","","","","","","","",""
"","fixation","","html-keyboard-response","196","172141","0.0-109.0","0","0","2V2GG","People","","null","","","","null","","","","","","","","","","","","","","","","","","","","","","","","","","","","","","","","","","","","","","","","","","","",""
"","see_reward","","html-keyboard-response","197","172471","0.0-110.0","0","0","2V2GG","People","","328","","","","32","","22","","3","","","","1","","","","","1","","","","","146","328","","","","","","","","","","","","","","","","","","","","","","","","",""
"","reward_outcome","","html-keyboard-response","198","174477","0.0-111.0","0","0","2V2GG","People","","61","","","","38","","22","","3","","","","","","","","","","","","","","","","1","61","","","","","","","","","","","","","","","","","","","","","","",""
"","fixation","","html-keyboard-response","199","175481","0.0-114.0","0","0","2V2GG","People","","null","","","","null","","","","","","","","","","","","","","","","","","","","","","","","","","","","","","","","","","","","","","","","","","","",""
"","see_reward","","html-keyboard-response","200","176023","0.0-115.0","0","0","2V2GG","People","","540","","","","32","","3","","4","","","","-1","","","","","1","","","","","0","540","","","","","","","","","","","","","","","","","","","","","","","","",""
"","reward_outcome","","html-keyboard-response","201","178025","0.0-116.0","0","0","2V2GG","People","","46","","","","38","","3","","4","","","","","","","","","","","","","","","","1","46","","","","","","","","","","","","","","","","","","","","","","",""
"","fixation","","html-keyboard-response","202","179031","0.0-119.0","0","0","2V2GG","People","","null","","","","null","","","","","","","","","","","","","","","","","","","","","","","","","","","","","","","","","","","","","","","","","","","",""
"","see_reward","","html-keyboard-response","203","179207","0.0-120.0","0","0","2V2GG","People","","174","","","","32","","35","","5","","","","1","","","","","1","","","","","145","174","","","","","","","","","","","","","","","","","","","","","","","","",""
"","reward_outcome","","html-keyboard-response","204","181212","0.0-121.0","0","0","2V2GG","People","","156","","","","38","","35","","5","","","","","","","","","","","","","","","","1","156","","","","","","","","","","","","","","","","","","","","","","",""
"","fixation","","html-keyboard-response","205","182215","0.0-124.0","0","0","2V2GG","People","","null","","","","null","","","","","","","","","","","","","","","","","","","","","","","","","","","","","","","","","","","","","","","","","","","",""
"","see_reward","","html-keyboard-response","206","183606","0.0-125.0","0","0","2V2GG","People","","1390","","","","32","","18","","6","","","","1","","","","","1","","","","","146","1390","","","","","","","","","","","","","","","","","","","","","","","","",""
"","reward_outcome","","html-keyboard-response","207","185612","0.0-126.0","0","0","2V2GG","People","","79","","","","38","","18","","6","","","","","","","","","","","","","","","","1","79","","","","","","","","","","","","","","","","","","","","","","",""
"","fixation","","html-keyboard-response","208","186617","0.0-129.0","0","0","2V2GG","People","","null","","","","null","","","","","","","","","","","","","","","","","","","","","","","","","","","","","","","","","","","","","","","","","","","",""
"","see_reward","","html-keyboard-response","209","187846","0.0-130.0","0","0","2V2GG","People","","1228","","","","32","","45","","7","","","","-1","","","","","1","","","","","0","1228","","","","","","","","","","","","","","","","","","","","","","","","",""
"","reward_outcome","","html-keyboard-response","210","189850","0.0-131.0","0","0","2V2GG","People","","447","","","","38","","45","","7","","","","","","","","","","","","","","","","1","447","","","","","","","","","","","","","","","","","","","","","","",""
"","fixation","","html-keyboard-response","211","190853","0.0-134.0","0","0","2V2GG","People","","null","","","","null","","","","","","","","","","","","","","","","","","","","","","","","","","","","","","","","","","","","","","","","","","","",""
"","see_reward","","html-keyboard-response","212","191423","0.0-135.0","0","0","2V2GG","People","","569","","","","32","","41","","8","","","","-1","","","","","1","","","","","0","569","","","","","","","","","","","","","","","","","","","","","","","","",""
"","reward_outcome","","html-keyboard-response","213","193430","0.0-136.0","0","0","2V2GG","People","","359","","","","38","","41","","8","","","","","","","","","","","","","","","","1","359","","","","","","","","","","","","","","","","","","","","","","",""
"","fixation","","html-keyboard-response","214","194438","0.0-139.0","0","0","2V2GG","People","","null","","","","null","","","","","","","","","","","","","","","","","","","","","","","","","","","","","","","","","","","","","","","","","","","",""
"","see_reward","","html-keyboard-response","215","195424","0.0-140.0","0","0","2V2GG","People","","985","","","","32","","10","","9","","","","1","","","","","1","","","","","150","985","","","","","","","","","","","","","","","","","","","","","","","","",""
"","reward_outcome","","html-keyboard-response","216","197431","0.0-141.0","0","0","2V2GG","People","","349","","","","38","","10","","9","","","","","","","","","","","","","","","","1","349","","","","","","","","","","","","","","","","","","","","","","",""
"","fixation","","html-keyboard-response","217","198438","0.0-144.0","0","0","2V2GG","People","","null","","","","null","","","","","","","","","","","","","","","","","","","","","","","","","","","","","","","","","","","","","","","","","","","",""
"","see_reward","","html-keyboard-response","218","199331","0.0-145.0","0","0","2V2GG","People","","893","","","","32","","16","","10","","","","-1","","","","","1","","","","","0","893","","","","","","","","","","","","","","","","","","","","","","","","",""
"","reward_outcome","","html-keyboard-response","219","201335","0.0-146.0","0","0","2V2GG","People","","107","","","","38","","16","","10","","","","","","","","","","","","","","","","1","107","","","","","","","","","","","","","","","","","","","","","","",""
"","fixation","","html-keyboard-response","220","202339","0.0-149.0","0","0","2V2GG","People","","null","","","","null","","","","","","","","","","","","","","","","","","","","","","","","","","","","","","","","","","","","","","","","","","","",""
"","see_reward","","html-keyboard-response","221","203144","0.0-150.0","0","0","2V2GG","People","","804","","","","32","","16","","11","","","","-1","","","","","1","","","","","0","804","","","","","","","","","","","","","","","","","","","","","","","","",""
"","reward_outcome","","html-keyboard-response","222","205151","0.0-151.0","0","0","2V2GG","People","","110","","","","38","","16","","11","","","","","","","","","","","","","","","","1","110","","","","","","","","","","","","","","","","","","","","","","",""
"","fixation","","html-keyboard-response","223","206157","0.0-154.0","0","0","2V2GG","People","","null","","","","null","","","","","","","","","","","","","","","","","","","","","","","","","","","","","","","","","","","","","","","","","","","",""
"","see_reward","","html-keyboard-response","224","206197","0.0-155.0","0","0","2V2GG","People","","39","","","","32","","14","","12","","","","-1","","","","","1","","","","","0","39","","","","","","","","","","","","","","","","","","","","","","","","",""
"","reward_outcome","","html-keyboard-response","225","208203","0.0-156.0","0","0","2V2GG","People","","44","","","","38","","14","","12","","","","","","","","","","","","","","","","1","44","","","","","","","","","","","","","","","","","","","","","","",""
"","fixation","","html-keyboard-response","226","209207","0.0-159.0","0","0","2V2GG","People","","null","","","","null","","","","","","","","","","","","","","","","","","","","","","","","","","","","","","","","","","","","","","","","","","","",""
"","see_reward","","html-keyboard-response","227","209292","0.0-160.0","0","0","2V2GG","People","","84","","","","32","","3","","13","","","","-1","","","","","1","","","","","0","84","","","","","","","","","","","","","","","","","","","","","","","","",""
"","reward_outcome","","html-keyboard-response","228","211294","0.0-161.0","0","0","2V2GG","People","","120","","","","38","","3","","13","","","","","","","","","","","","","","","","1","120","","","","","","","","","","","","","","","","","","","","","","",""
"","fixation","","html-keyboard-response","229","212298","0.0-164.0","0","0","2V2GG","People","","null","","","","null","","","","","","","","","","","","","","","","","","","","","","","","","","","","","","","","","","","","","","","","","","","",""
"","see_reward","","html-keyboard-response","230","213865","0.0-165.0","0","0","2V2GG","People","","1566","","","","32","","27","","14","","","","1","","","","","1","","","","","146","1566","","","","","","","","","","","","","","","","","","","","","","","","",""
"","reward_outcome","","html-keyboard-response","231","215869","0.0-166.0","0","0","2V2GG","People","","54","","","","38","","27","","14","","","","","","","","","","","","","","","","1","54","","","","","","","","","","","","","","","","","","","","","","",""
"","fixation","","html-keyboard-response","232","216873","0.0-169.0","0","0","2V2GG","People","","null","","","","null","","","","","","","","","","","","","","","","","","","","","","","","","","","","","","","","","","","","","","","","","","","",""
"","see_reward","","html-keyboard-response","233","217455","0.0-170.0","0","0","2V2GG","People","","580","","","","32","","21","","15","","","","1","","","","","1","","","","","160","580","","","","","","","","","","","","","","","","","","","","","","","","",""
"","reward_outcome","","html-keyboard-response","234","219459","0.0-171.0","0","0","2V2GG","People","","93","","","","38","","21","","15","","","","","","","","","","","","","","","","1","93","","","","","","","","","","","","","","","","","","","","","","",""
"","fixation","","html-keyboard-response","235","220464","0.0-174.0","0","0","2V2GG","People","","null","","","","null","","","","","","","","","","","","","","","","","","","","","","","","","","","","","","","","","","","","","","","","","","","",""
"","see_reward","","html-keyboard-response","236","220536","0.0-175.0","0","0","2V2GG","People","","70","","","","32","","18","","16","","","","1","","","","","1","","","","","146","70","","","","","","","","","","","","","","","","","","","","","","","","",""
"","reward_outcome","","html-keyboard-response","237","222542","0.0-176.0","0","0","2V2GG","People","","92","","","","38","","18","","16","","","","","","","","","","","","","","","","1","92","","","","","","","","","","","","","","","","","","","","","","",""
"","fixation","","html-keyboard-response","238","223547","0.0-179.0","0","0","2V2GG","People","","null","","","","null","","","","","","","","","","","","","","","","","","","","","","","","","","","","","","","","","","","","","","","","","","","",""
"","see_reward","","html-keyboard-response","239","223912","0.0-180.0","0","0","2V2GG","People","","363","","","","32","","14","","17","","","","-1","","","","","1","","","","","0","363","","","","","","","","","","","","","","","","","","","","","","","","",""
"","reward_outcome","","html-keyboard-response","240","225915","0.0-181.0","0","0","2V2GG","People","","86","","","","38","","14","","17","","","","","","","","","","","","","","","","1","86","","","","","","","","","","","","","","","","","","","","","","",""
"","fixation","","html-keyboard-response","241","226920","0.0-184.0","0","0","2V2GG","People","","null","","","","null","","","","","","","","","","","","","","","","","","","","","","","","","","","","","","","","","","","","","","","","","","","",""
"","see_reward","","html-keyboard-response","242","227641","0.0-185.0","0","0","2V2GG","People","","718","","","","32","","10","","18","","","","1","","","","","1","","","","","150","718","","","","","","","","","","","","","","","","","","","","","","","","",""
"","reward_outcome","","html-keyboard-response","243","229645","0.0-186.0","0","0","2V2GG","People","","107","","","","38","","10","","18","","","","","","","","","","","","","","","","1","107","","","","","","","","","","","","","","","","","","","","","","",""
"","fixation","","html-keyboard-response","244","230650","0.0-189.0","0","0","2V2GG","People","","null","","","","null","","","","","","","","","","","","","","","","","","","","","","","","","","","","","","","","","","","","","","","","","","","",""
"","see_reward","","html-keyboard-response","245","230960","0.0-190.0","0","0","2V2GG","People","","308","","","","32","","45","","19","","","","-1","","","","","1","","","","","0","308","","","","","","","","","","","","","","","","","","","","","","","","",""
"","reward_outcome","","html-keyboard-response","246","232965","0.0-191.0","0","0","2V2GG","People","","72","","","","38","","45","","19","","","","","","","","","","","","","","","","1","72","","","","","","","","","","","","","","","","","","","","","","",""
"","fixation","","html-keyboard-response","247","233968","0.0-194.0","0","0","2V2GG","People","","null","","","","null","","","","","","","","","","","","","","","","","","","","","","","","","","","","","","","","","","","","","","","","","","","",""
"","see_reward","","html-keyboard-response","248","233970","0.0-195.0","0","0","2V2GG","People","","0","","","","32","","0","","20","","","","-1","","","","","1","","","","","0","0","","","","","","","","","","","","","","","","","","","","","","","","",""
"","reward_outcome","","html-keyboard-response","249","235973","0.0-196.0","0","0","2V2GG","People","","252","","","","38","","0","","20","","","","","","","","","","","","","","","","1","252","","","","","","","","","","","","","","","","","","","","","","",""
"","fixation","","html-keyboard-response","250","236975","0.0-199.0","0","0","2V2GG","People","","null","","","","null","","","","","","","","","","","","","","","","","","","","","","","","","","","","","","","","","","","","","","","","","","","",""
"","see_reward","","html-keyboard-response","251","237336","0.0-200.0","0","0","2V2GG","People","","359","","","","32","","35","","21","","","","1","","","","","1","","","","","145","359","","","","","","","","","","","","","","","","","","","","","","","","",""
"","reward_outcome","","html-keyboard-response","252","239339","0.0-201.0","0","0","2V2GG","People","","56","","","","38","","35","","21","","","","","","","","","","","","","","","","1","56","","","","","","","","","","","","","","","","","","","","","","",""
"","fixation","","html-keyboard-response","253","240345","0.0-204.0","0","0","2V2GG","People","","null","","","","null","","","","","","","","","","","","","","","","","","","","","","","","","","","","","","","","","","","","","","","","","","","",""
"","see_reward","","html-keyboard-response","254","240713","0.0-205.0","0","0","2V2GG","People","","366","","","","32","","27","","22","","","","1","","","","","1","","","","","146","366","","","","","","","","","","","","","","","","","","","","","","","","",""
"","reward_outcome","","html-keyboard-response","255","242715","0.0-206.0","0","0","2V2GG","People","","102","","","","38","","27","","22","","","","","","","","","","","","","","","","1","102","","","","","","","","","","","","","","","","","","","","","","",""
"","fixation","","html-keyboard-response","256","243719","0.0-209.0","0","0","2V2GG","People","","null","","","","null","","","","","","","","","","","","","","","","","","","","","","","","","","","","","","","","","","","","","","","","","","","",""
"","see_reward","","html-keyboard-response","257","244670","0.0-210.0","0","0","2V2GG","People","","949","","","","32","","22","","23","","","","1","","","","","1","","","","","146","949","","","","","","","","","","","","","","","","","","","","","","","","",""
"","reward_outcome","","html-keyboard-response","258","246673","0.0-211.0","0","0","2V2GG","People","","90","","","","38","","22","","23","","","","","","","","","","","","","","","","1","90","","","","","","","","","","","","","","","","","","","","","","",""
"","block_over","","html-keyboard-response","259","257993","0.0-213.0-0.0","0","0","2V2GG","People","","11319","","","","78","","","","","","","","","","","","","","","","","","","","","","","","","","","","","","","","","","","","","","","","","","","",""
"","fixation","","html-keyboard-response","260","258996","0.0-214.0","0","0","2V2GG","People","","null","","","","null","","","","","","","","","","","","","","","","","","","","","","","","","","","","","","","","","","","","","","","","","","","",""
"","see_reward","","html-keyboard-response","261","259359","0.0-215.0","0","0","2V2GG","People","","361","","","","32","","27","","24","","","","1","","","","","2","","","","","146","361","","","","","","","","","","","","","","","","","","","","","","","","",""
"","reward_outcome","","html-keyboard-response","262","261362","0.0-216.0","0","0","2V2GG","People","","65","","","","38","","27","","24","","","","","","","","","","","","","","","","1","65","","","","","","","","","","","","","","","","","","","","","","",""
"","fixation","","html-keyboard-response","263","262366","0.0-219.0","0","0","2V2GG","People","","null","","","","null","","","","","","","","","","","","","","","","","","","","","","","","","","","","","","","","","","","","","","","","","","","",""
"","see_reward","","html-keyboard-response","264","262906","0.0-220.0","0","0","2V2GG","People","","538","","","","32","","45","","25","","","","-1","","","","","2","","","","","0","538","","","","","","","","","","","","","","","","","","","","","","","","",""
"","reward_outcome","","html-keyboard-response","265","264910","0.0-221.0","0","0","2V2GG","People","","63","","","","38","","45","","25","","","","","","","","","","","","","","","","1","63","","","","","","","","","","","","","","","","","","","","","","",""
"","fixation","","html-keyboard-response","266","265913","0.0-224.0","0","0","2V2GG","People","","null","","","","null","","","","","","","","","","","","","","","","","","","","","","","","","","","","","","","","","","","","","","","","","","","",""
"","see_reward","","html-keyboard-response","267","267093","0.0-225.0","0","0","2V2GG","People","","1179","","","","32","","18","","26","","","","1","","","","","2","","","","","146","1179","","","","","","","","","","","","","","","","","","","","","","","","",""
"","reward_outcome","","html-keyboard-response","268","269100","0.0-226.0","0","0","2V2GG","People","","66","","","","38","","18","","26","","","","","","","","","","","","","","","","1","66","","","","","","","","","","","","","","","","","","","","","","",""
"","fixation","","html-keyboard-response","269","270107","0.0-229.0","0","0","2V2GG","People","","null","","","","null","","","","","","","","","","","","","","","","","","","","","","","","","","","","","","","","","","","","","","","","","","","",""
"","see_reward","","html-keyboard-response","270","270250","0.0-230.0","0","0","2V2GG","People","","141","","","","32","","22","","27","","","","1","","","","","2","","","","","146","141","","","","","","","","","","","","","","","","","","","","","","","","",""
"","reward_outcome","","html-keyboard-response","271","272257","0.0-231.0","0","0","2V2GG","People","","295","","","","38","","22","","27","","","","","","","","","","","","","","","","1","295","","","","","","","","","","","","","","","","","","","","","","",""
"","fixation","","html-keyboard-response","272","273265","0.0-234.0","0","0","2V2GG","People","","null","","","","null","","","","","","","","","","","","","","","","","","","","","","","","","","","","","","","","","","","","","","","","","","","",""
"","see_reward","","html-keyboard-response","273","273593","0.0-235.0","0","0","2V2GG","People","","326","","","","32","","3","","28","","","","-1","","","","","2","","","","","0","326","","","","","","","","","","","","","","","","","","","","","","","","",""
"","reward_outcome","","html-keyboard-response","274","275595","0.0-236.0","0","0","2V2GG","People","","79","","","","38","","3","","28","","","","","","","","","","","","","","","","1","79","","","","","","","","","","","","","","","","","","","","","","",""
"","fixation","","html-keyboard-response","275","276602","0.0-239.0","0","0","2V2GG","People","","null","","","","null","","","","","","","","","","","","","","","","","","","","","","","","","","","","","","","","","","","","","","","","","","","",""
"","see_reward","","html-keyboard-response","276","276813","0.0-240.0","0","0","2V2GG","People","","210","","","","32","","16","","29","","","","-1","","","","","2","","","","","0","210","","","","","","","","","","","","","","","","","","","","","","","","",""
"","reward_outcome","","html-keyboard-response","277","278818","0.0-241.0","0","0","2V2GG","People","","130","","","","38","","16","","29","","","","","","","","","","","","","","","","1","130","","","","","","","","","","","","","","","","","","","","","","",""
"","fixation","","html-keyboard-response","278","279825","0.0-244.0","0","0","2V2GG","People","","null","","","","null","","","","","","","","","","","","","","","","","","","","","","","","","","","","","","","","","","","","","","","","","","","",""
"","see_reward","","html-keyboard-response","279","280914","0.0-245.0","0","0","2V2GG","People","","1087","","","","32","","35","","30","","","","1","","","","","2","","","","","145","1087","","","","","","","","","","","","","","","","","","","","","","","","",""
"","reward_outcome","","html-keyboard-response","280","282917","0.0-246.0","0","0","2V2GG","People","","95","","","","38","","35","","30","","","","","","","","","","","","","","","","1","95","","","","","","","","","","","","","","","","","","","","","","",""
"","fixation","","html-keyboard-response","281","283923","0.0-249.0","0","0","2V2GG","People","","null","","","","null","","","","","","","","","","","","","","","","","","","","","","","","","","","","","","","","","","","","","","","","","","","",""
"","see_reward","","html-keyboard-response","282","284315","0.0-250.0","0","0","2V2GG","People","","390","","","","32","","45","","31","","","","-1","","","","","2","","","","","0","390","","","","","","","","","","","","","","","","","","","","","","","","",""
"","reward_outcome","","html-keyboard-response","283","286320","0.0-251.0","0","0","2V2GG","People","","53","","","","38","","45","","31","","","","","","","","","","","","","","","","1","53","","","","","","","","","","","","","","","","","","","","","","",""
"","fixation","","html-keyboard-response","284","287326","0.0-254.0","0","0","2V2GG","People","","null","","","","null","","","","","","","","","","","","","","","","","","","","","","","","","","","","","","","","","","","","","","","","","","","",""
"","see_reward","","html-keyboard-response","285","287698","0.0-255.0","0","0","2V2GG","People","","370","","","","32","","21","","32","","","","1","","","","","2","","","","","160","370","","","","","","","","","","","","","","","","","","","","","","","","",""
"","reward_outcome","","html-keyboard-response","286","289702","0.0-256.0","0","0","2V2GG","People","","36","","","","38","","21","","32","","","","","","","","","","","","","","","","1","36","","","","","","","","","","","","","","","","","","","","","","",""
"","fixation","","html-keyboard-response","287","290709","0.0-259.0","0","0","2V2GG","People","","null","","","","null","","","","","","","","","","","","","","","","","","","","","","","","","","","","","","","","","","","","","","","","","","","",""
"","see_reward","","html-keyboard-response","288","290724","0.0-260.0","0","0","2V2GG","People","","13","","","","32","","21","","33","","","","1","","","","","2","","","","","160","13","","","","","","","","","","","","","","","","","","","","","","","","",""
"","reward_outcome","","html-keyboard-response","289","292728","0.0-261.0","0","0","2V2GG","People","","69","","","","38","","21","","33","","","","","","","","","","","","","","","","1","69","","","","","","","","","","","","","","","","","","","","","","",""
"","fixation","","html-keyboard-response","290","293734","0.0-264.0","0","0","2V2GG","People","","null","","","","null","","","","","","","","","","","","","","","","","","","","","","","","","","","","","","","","","","","","","","","","","","","",""
"","see_reward","","html-keyboard-response","291","294690","0.0-265.0","0","0","2V2GG","People","","954","","","","32","","22","","34","","","","1","","","","","2","","","","","146","954","","","","","","","","","","","","","","","","","","","","","","","","",""
"","reward_outcome","","html-keyboard-response","292","296696","0.0-266.0","0","0","2V2GG","People","","35","","","","38","","22","","34","","","","","","","","","","","","","","","","1","35","","","","","","","","","","","","","","","","","","","","","","",""
"","fixation","","html-keyboard-response","293","297703","0.0-269.0","0","0","2V2GG","People","","null","","","","null","","","","","","","","","","","","","","","","","","","","","","","","","","","","","","","","","","","","","","","","","","","",""
"","see_reward","","html-keyboard-response","294","300018","0.0-270.0","0","0","2V2GG","People","","2313","","","","32","","14","","35","","","","-1","","","","","2","","","","","0","2313","","","","","","","","","","","","","","","","","","","","","","","","",""
"","reward_outcome","","html-keyboard-response","295","302020","0.0-271.0","0","0","2V2GG","People","","35","","","","38","","14","","35","","","","","","","","","","","","","","","","1","35","","","","","","","","","","","","","","","","","","","","","","",""
"","fixation","","html-keyboard-response","296","303023","0.0-274.0","0","0","2V2GG","People","","null","","","","null","","","","","","","","","","","","","","","","","","","","","","","","","","","","","","","","","","","","","","","","","","","",""
"","see_reward","","html-keyboard-response","297","303706","0.0-275.0","0","0","2V2GG","People","","682","","","","32","","14","","36","","","","-1","","","","","2","","","","","0","682","","","","","","","","","","","","","","","","","","","","","","","","",""
"","reward_outcome","","html-keyboard-response","298","305714","0.0-276.0","0","0","2V2GG","People","","63","","","","38","","14","","36","","","","","","","","","","","","","","","","1","63","","","","","","","","","","","","","","","","","","","","","","",""
"","fixation","","html-keyboard-response","299","306722","0.0-279.0","0","0","2V2GG","People","","null","","","","null","","","","","","","","","","","","","","","","","","","","","","","","","","","","","","","","","","","","","","","","","","","",""
"","see_reward","","html-keyboard-response","300","306987","0.0-280.0","0","0","2V2GG","People","","263","","","","32","","0","","37","","","","-1","","","","","2","","","","","0","263","","","","","","","","","","","","","","","","","","","","","","","","",""
"","reward_outcome","","html-keyboard-response","301","308989","0.0-281.0","0","0","2V2GG","People","","67","","","","38","","0","","37","","","","","","","","","","","","","","","","1","67","","","","","","","","","","","","","","","","","","","","","","",""
"","fixation","","html-keyboard-response","302","309994","0.0-284.0","0","0","2V2GG","People","","null","","","","null","","","","","","","","","","","","","","","","","","","","","","","","","","","","","","","","","","","","","","","","","","","",""
"","see_reward","","html-keyboard-response","303","310739","0.0-285.0","0","0","2V2GG","People","","743","","","","32","","10","","38","","","","1","","","","","2","","","","","150","743","","","","","","","","","","","","","","","","","","","","","","","","",""
"","reward_outcome","","html-keyboard-response","304","312743","0.0-286.0","0","0","2V2GG","People","","54","","","","38","","10","","38","","","","","","","","","","","","","","","","1","54","","","","","","","","","","","","","","","","","","","","","","",""
"","fixation","","html-keyboard-response","305","313746","0.0-289.0","0","0","2V2GG","People","","null","","","","null","","","","","","","","","","","","","","","","","","","","","","","","","","","","","","","","","","","","","","","","","","","",""
"","see_reward","","html-keyboard-response","306","313890","0.0-290.0","0","0","2V2GG","People","","142","","","","32","","27","","39","","","","1","","","","","2","","","","","146","142","","","","","","","","","","","","","","","","","","","","","","","","",""
"","reward_outcome","","html-keyboard-response","307","315896","0.0-291.0","0","0","2V2GG","People","","55","","","","38","","27","","39","","","","","","","","","","","","","","","","1","55","","","","","","","","","","","","","","","","","","","","","","",""
"","fixation","","html-keyboard-response","308","316901","0.0-294.0","0","0","2V2GG","People","","null","","","","null","","","","","","","","","","","","","","","","","","","","","","","","","","","","","","","","","","","","","","","","","","","",""
"","see_reward","","html-keyboard-response","309","318395","0.0-295.0","0","0","2V2GG","People","","1492","","","","32","","0","","40","","","","-1","","","","","2","","","","","0","1492","","","","","","","","","","","","","","","","","","","","","","","","",""
"","reward_outcome","","html-keyboard-response","310","320402","0.0-296.0","0","0","2V2GG","People","","70","","","","38","","0","","40","","","","","","","","","","","","","","","","1","70","","","","","","","","","","","","","","","","","","","","","","",""
"","fixation","","html-keyboard-response","311","321405","0.0-299.0","0","0","2V2GG","People","","null","","","","null","","","","","","","","","","","","","","","","","","","","","","","","","","","","","","","","","","","","","","","","","","","",""
"","see_reward","","html-keyboard-response","312","321467","0.0-300.0","0","0","2V2GG","People","","60","","","","32","","3","","41","","","","-1","","","","","2","","","","","0","60","","","","","","","","","","","","","","","","","","","","","","","","",""
"","reward_outcome","","html-keyboard-response","313","323473","0.0-301.0","0","0","2V2GG","People","","61","","","","38","","3","","41","","","","","","","","","","","","","","","","1","61","","","","","","","","","","","","","","","","","","","","","","",""
"","fixation","","html-keyboard-response","314","324480","0.0-304.0","0","0","2V2GG","People","","null","","","","null","","","","","","","","","","","","","","","","","","","","","","","","","","","","","","","","","","","","","","","","","","","",""
"","see_reward","","html-keyboard-response","315","324684","0.0-305.0","0","0","2V2GG","People","","202","","","","32","","41","","42","","","","-1","","","","","2","","","","","0","202","","","","","","","","","","","","","","","","","","","","","","","","",""
"","reward_outcome","","html-keyboard-response","316","326690","0.0-306.0","0","0","2V2GG","People","","42","","","","38","","41","","42","","","","","","","","","","","","","","","","1","42","","","","","","","","","","","","","","","","","","","","","","",""
"","fixation","","html-keyboard-response","317","327696","0.0-309.0","0","0","2V2GG","People","","null","","","","null","","","","","","","","","","","","","","","","","","","","","","","","","","","","","","","","","","","","","","","","","","","",""
"","see_reward","","html-keyboard-response","318","328219","0.0-310.0","0","0","2V2GG","People","","520","","","","32","","16","","43","","","","-1","","","","","2","","","","","0","520","","","","","","","","","","","","","","","","","","","","","","","","",""
"","reward_outcome","","html-keyboard-response","319","330225","0.0-311.0","0","0","2V2GG","People","","30","","","","38","","16","","43","","","","","","","","","","","","","","","","1","30","","","","","","","","","","","","","","","","","","","","","","",""
"","fixation","","html-keyboard-response","320","331228","0.0-314.0","0","0","2V2GG","People","","null","","","","null","","","","","","","","","","","","","","","","","","","","","","","","","","","","","","","","","","","","","","","","","","","",""
"","see_reward","","html-keyboard-response","321","331972","0.0-315.0","0","0","2V2GG","People","","742","","","","32","","18","","44","","","","1","","","","","2","","","","","146","742","","","","","","","","","","","","","","","","","","","","","","","","",""
"","reward_outcome","","html-keyboard-response","322","333977","0.0-316.0","0","0","2V2GG","People","","35","","","","38","","18","","44","","","","","","","","","","","","","","","","1","35","","","","","","","","","","","","","","","","","","","","","","",""
"","fixation","","html-keyboard-response","323","334981","0.0-319.0","0","0","2V2GG","People","","null","","","","null","","","","","","","","","","","","","","","","","","","","","","","","","","","","","","","","","","","","","","","","","","","",""
"","see_reward","","html-keyboard-response","324","336172","0.0-320.0","0","0","2V2GG","People","","1189","","","","32","","10","","45","","","","1","","","","","2","","","","","150","1189","","","","","","","","","","","","","","","","","","","","","","","","",""
"","reward_outcome","","html-keyboard-response","325","338177","0.0-321.0","0","0","2V2GG","People","","54","","","","38","","10","","45","","","","","","","","","","","","","","","","1","54","","","","","","","","","","","","","","","","","","","","","","",""
"","fixation","","html-keyboard-response","326","339182","0.0-324.0","0","0","2V2GG","People","","null","","","","null","","","","","","","","","","","","","","","","","","","","","","","","","","","","","","","","","","","","","","","","","","","",""
"","see_reward","","html-keyboard-response","327","339700","0.0-325.0","0","0","2V2GG","People","","516","","","","32","","41","","46","","","","-1","","","","","2","","","","","0","516","","","","","","","","","","","","","","","","","","","","","","","","",""
"","reward_outcome","","html-keyboard-response","328","341707","0.0-326.0","0","0","2V2GG","People","","26","","","","38","","41","","46","","","","","","","","","","","","","","","","1","26","","","","","","","","","","","","","","","","","","","","","","",""
"","fixation","","html-keyboard-response","329","342713","0.0-329.0","0","0","2V2GG","People","","null","","","","null","","","","","","","","","","","","","","","","","","","","","","","","","","","","","","","","","","","","","","","","","","","",""
"","see_reward","","html-keyboard-response","330","342922","0.0-330.0","0","0","2V2GG","People","","208","","","","32","","35","","47","","","","1","","","","","2","","","","","145","208","","","","","","","","","","","","","","","","","","","","","","","","",""
"","reward_outcome","","html-keyboard-response","331","344930","0.0-331.0","0","0","2V2GG","People","","46","","","","38","","35","","47","","","","","","","","","","","","","","","","1","46","","","","","","","","","","","","","","","","","","","","","","",""
"","block_over","","html-keyboard-response","332","347171","0.0-333.0-0.0","0","0","2V2GG","People","","2238","","","","78","","","","","","","","","","","","","","","","","","","","","","","","","","","","","","","","","","","","","","","","","","","",""
"","fixation","","html-keyboard-response","333","348176","0.0-334.0","0","0","2V2GG","People","","null","","","","null","","","","","","","","","","","","","","","","","","","","","","","","","","","","","","","","","","","","","","","","","","","",""
"","see_reward","","html-keyboard-response","334","348459","0.0-335.0","0","0","2V2GG","People","","280","","","","32","","18","","48","","","","1","","","","","3","","","","","146","280","","","","","","","","","","","","","","","","","","","","","","","","",""
"","reward_outcome","","html-keyboard-response","335","350461","0.0-336.0","0","0","2V2GG","People","","37","","","","38","","18","","48","","","","","","","","","","","","","","","","1","37","","","","","","","","","","","","","","","","","","","","","","",""
"","fixation","","html-keyboard-response","336","351464","0.0-339.0","0","0","2V2GG","People","","null","","","","null","","","","","","","","","","","","","","","","","","","","","","","","","","","","","","","","","","","","","","","","","","","",""
"","see_reward","","html-keyboard-response","337","352460","0.0-340.0","0","0","2V2GG","People","","994","","","","32","","35","","49","","","","1","","","","","3","","","","","145","994","","","","","","","","","","","","","","","","","","","","","","","","",""
"","reward_outcome","","html-keyboard-response","338","354466","0.0-341.0","0","0","2V2GG","People","","46","","","","38","","35","","49","","","","","","","","","","","","","","","","1","46","","","","","","","","","","","","","","","","","","","","","","",""
"","fixation","","html-keyboard-response","339","355468","0.0-344.0","0","0","2V2GG","People","","null","","","","null","","","","","","","","","","","","","","","","","","","","","","","","","","","","","","","","","","","","","","","","","","","",""
"","see_reward","","html-keyboard-response","340","355641","0.0-345.0","0","0","2V2GG","People","","171","","","","32","","22","","50","","","","1","","","","","3","","","","","146","171","","","","","","","","","","","","","","","","","","","","","","","","",""
"","reward_outcome","","html-keyboard-response","341","357645","0.0-346.0","0","0","2V2GG","People","","27","","","","38","","22","","50","","","","","","","","","","","","","","","","1","27","","","","","","","","","","","","","","","","","","","","","","",""
"","fixation","","html-keyboard-response","342","358649","0.0-349.0","0","0","2V2GG","People","","null","","","","null","","","","","","","","","","","","","","","","","","","","","","","","","","","","","","","","","","","","","","","","","","","",""
"","see_reward","","html-keyboard-response","343","359620","0.0-350.0","0","0","2V2GG","People","","969","","","","32","","35","","51","","","","1","","","","","3","","","","","145","969","","","","","","","","","","","","","","","","","","","","","","","","",""
"","reward_outcome","","html-keyboard-response","344","361622","0.0-351.0","0","0","2V2GG","People","","63","","","","38","","35","","51","","","","","","","","","","","","","","","","1","63","","","","","","","","","","","","","","","","","","","","","","",""
"","fixation","","html-keyboard-response","345","362628","0.0-354.0","0","0","2V2GG","People","","null","","","","null","","","","","","","","","","","","","","","","","","","","","","","","","","","","","","","","","","","","","","","","","","","",""
"","see_reward","","html-keyboard-response","346","363235","0.0-355.0","0","0","2V2GG","People","","605","","","","32","","21","","52","","","","1","","","","","3","","","","","160","605","","","","","","","","","","","","","","","","","","","","","","","","",""
"","reward_outcome","","html-keyboard-response","347","365240","0.0-356.0","0","0","2V2GG","People","","48","","","","38","","21","","52","","","","","","","","","","","","","","","","1","48","","","","","","","","","","","","","","","","","","","","","","",""
"","fixation","","html-keyboard-response","348","366246","0.0-359.0","0","0","2V2GG","People","","null","","","","null","","","","","","","","","","","","","","","","","","","","","","","","","","","","","","","","","","","","","","","","","","","",""
"","see_reward","","html-keyboard-response","349","367458","0.0-360.0","0","0","2V2GG","People","","1210","","","","32","","41","","53","","","","-1","","","","","3","","","","","0","1210","","","","","","","","","","","","","","","","","","","","","","","","",""
"","reward_outcome","","html-keyboard-response","350","369461","0.0-361.0","0","0","2V2GG","People","","73","","","","38","","41","","53","","","","","","","","","","","","","","","","1","73","","","","","","","","","","","","","","","","","","","","","","",""
"","fixation","","html-keyboard-response","351","370467","0.0-364.0","0","0","2V2GG","People","","null","","","","null","","","","","","","","","","","","","","","","","","","","","","","","","","","","","","","","","","","","","","","","","","","",""
"","see_reward","","html-keyboard-response","352","370821","0.0-365.0","0","0","2V2GG","People","","352","","","","32","","10","","54","","","","1","","","","","3","","","","","150","352","","","","","","","","","","","","","","","","","","","","","","","","",""
"","reward_outcome","","html-keyboard-response","353","372825","0.0-366.0","0","0","2V2GG","People","","78","","","","38","","10","","54","","","","","","","","","","","","","","","","1","78","","","","","","","","","","","","","","","","","","","","","","",""
"","fixation","","html-keyboard-response","354","373832","0.0-369.0","0","0","2V2GG","People","","null","","","","null","","","","","","","","","","","","","","","","","","","","","","","","","","","","","","","","","","","","","","","","","","","",""
"","see_reward","","html-keyboard-response","355","374220","0.0-370.0","0","0","2V2GG","People","","386","","","","32","","14","","55","","","","-1","","","","","3","","","","","0","386","","","","","","","","","","","","","","","","","","","","","","","","",""
"","reward_outcome","","html-keyboard-response","356","376226","0.0-371.0","0","0","2V2GG","People","","31","","","","38","","14","","55","","","","","","","","","","","","","","","","1","31","","","","","","","","","","","","","","","","","","","","","","",""
"","fixation","","html-keyboard-response","357","377233","0.0-374.0","0","0","2V2GG","People","","null","","","","null","","","","","","","","","","","","","","","","","","","","","","","","","","","","","","","","","","","","","","","","","","","",""
"","see_reward","","html-keyboard-response","358","378038","0.0-375.0","0","0","2V2GG","People","","802","","","","32","","0","","56","","","","-1","","","","","3","","","","","0","802","","","","","","","","","","","","","","","","","","","","","","","","",""
