"success","ttype","start_time","trial_type","trial_index","time_elapsed","internal_node_id","warning","missed_checkup","PID","stim_type","view_history","rt","responses","category","repeat_instructions","key_press","response","stimulus_id","painting","index","stimulus_left","stimulus_right","explain_trial","reward_type","rating_left","rating_right","painting_left","painting_right","block","left_chosen","chosen_obj","unchosen_obj","explain_response","reward_amount","see_reward_rt","register_reward_response","register_reward_rt","deliberation_reward_tally","stimulus_left_deliberation_ind","stimulus_right_deliberation_ind","chosen_trial","gain_left","higher_outcome_chosen","old_pair","chosen_object","rt_pairs","left_object_chosen","rt_object","old_response","new_rating","deliberated_stim","initial_rating","outcome_eval_rt","outcome_eval_response","outcome_eval_gain","outcome_eval_acc","preamble","outcome_eval_confidence","outcome_eval_confidence_rt","total_reward_tally"
"true","full_screen","d01192023hr1655","fullscreen","0","1811","0.0-0.0","0","0","V00tD","Scenes","","","","","","","","","","","","","","","","","","","","","","","","","","","","","","","","","","","","","","","","","","","","","","","","","",""
"","rating_instructions","","instructions","1","7457","0.0-1.0-0.0","0","0","V00tD","Scenes","[{""page_index"":0,""viewing_time"":3848},{""page_index"":1,""viewing_time"":1796}]","5644","","","","","","","","","","","","","","","","","","","","","","","","","","","","","","","","","","","","","","","","","","","","","","","",""
"","","","survey-multi-choice","2","10075","0.0-1.0-1.0","0","0","V00tD","Scenes","","2615","{""Q0"":""True"",""Q1"":""Mouse""}","rating_comprehension_check","0","","","","","","","","","","","","","","","","","","","","","","","","","","","","","","","","","","","","","","","","","","","","",""
"","start_phase","","html-keyboard-response","3","11373","0.0-2.0","0","0","V00tD","Scenes","","1295","","","","78","","","","","","","","","","","","","","","","","","","","","","","","","","","","","","","","","","","","","","","","","","","",""
"","rating","","html-slider-response","4","12680","0.0-3.0","0","0","V00tD","Scenes","","1305","","","","","50","138","petr-vysohlid-9fqwGqGLUxc-unsplash.jpg","0","","","","","","","","","","","","","","","","","","","","","","","","","","","","","","","","","","","","","","","",""
"","rating","","html-slider-response","5","13835","0.0-4.0","0","0","V00tD","Scenes","","1152","","","","","50","113","damian-denis-D8R_txR_0PE-unsplash.jpg","1","","","","","","","","","","","","","","","","","","","","","","","","","","","","","","","","","","","","","","","",""
"","rating","","html-slider-response","6","15002","0.0-5.0","0","0","V00tD","Scenes","","1165","","","","","50","122","jeff-king-bJHWJeiHfHc-unsplash.jpg","2","","","","","","","","","","","","","","","","","","","","","","","","","","","","","","","","","","","","","","","",""
"","rating","","html-slider-response","7","16132","0.0-6.0","0","0","V00tD","Scenes","","1128","","","","","50","111","claudio-testa-U3F2o6vz3bs-unsplash.jpg","3","","","","","","","","","","","","","","","","","","","","","","","","","","","","","","","","","","","","","","","",""
"","rating","","html-slider-response","8","16878","0.0-7.0","0","0","V00tD","Scenes","","744","","","","","50","148","tom-gainor-ZqLeQDjY6fY-unsplash.jpg","4","","","","","","","","","","","","","","","","","","","","","","","","","","","","","","","","","","","","","","","",""
"","rating","","html-slider-response","9","17550","0.0-8.0","0","0","V00tD","Scenes","","670","","","","","50","133","mickey-o-neil-xL66l--msXU-unsplash.jpg","5","","","","","","","","","","","","","","","","","","","","","","","","","","","","","","","","","","","","","","","",""
"","rating","","html-slider-response","10","42390","0.0-9.0","0","0","V00tD","Scenes","","24839","","","","","50","141","sebastian-unrau-v4e3JI7DDHI-unsplash.jpg","6","","","","","","","","","","","","","","","","","","","","","","","","","","","","","","","","","","","","","","","",""
"","rating","","html-slider-response","11","43636","0.0-10.0","0","0","V00tD","Scenes","","1244","","","","","50","140","samuele-errico-piccarini-JEBqFu2AOOA-unsplash.jpg","7","","","","","","","","","","","","","","","","","","","","","","","","","","","","","","","","","","","","","","","",""
"","rating","","html-slider-response","12","44870","0.0-11.0","0","0","V00tD","Scenes","","1232","","","","","50","132","meng-ji-8BH_M-53CyA-unsplash.jpg","8","","","","","","","","","","","","","","","","","","","","","","","","","","","","","","","","","","","","","","","",""
"","rating","","html-slider-response","13","45682","0.0-12.0","0","0","V00tD","Scenes","","811","","","","","50","124","johannes-plenio-sPt5RIjKfpk-unsplash.jpg","9","","","","","","","","","","","","","","","","","","","","","","","","","","","","","","","","","","","","","","","",""
"","rating","","html-slider-response","14","46458","0.0-13.0","0","0","V00tD","Scenes","","774","","","","","50","134","milada-vigerova-pQMM63GE7fo-unsplash.jpg","10","","","","","","","","","","","","","","","","","","","","","","","","","","","","","","","","","","","","","","","",""
"","rating","","html-slider-response","15","47218","0.0-14.0","0","0","V00tD","Scenes","","758","","","","","50","112","cosmic-timetraveler-pYyOZ8q7AII-unsplash.jpg","11","","","","","","","","","","","","","","","","","","","","","","","","","","","","","","","","","","","","","","","",""
"","rating","","html-slider-response","16","47809","0.0-15.0","0","0","V00tD","Scenes","","589","","","","","50","145","stephen-leonardi-gyIRjKPXupE-unsplash.jpg","12","","","","","","","","","","","","","","","","","","","","","","","","","","","","","","","","","","","","","","","",""
"","rating","","html-slider-response","17","48392","0.0-16.0","0","0","V00tD","Scenes","","581","","","","","50","118","henry-be-NLF6hTe4PAg-unsplash.jpg","13","","","","","","","","","","","","","","","","","","","","","","","","","","","","","","","","","","","","","","","",""
"","rating","","html-slider-response","18","48901","0.0-17.0","0","0","V00tD","Scenes","","507","","","","","50","100","aleksandra-boguslawska-MS7KD9Ti7FQ-unsplash.jpg","14","","","","","","","","","","","","","","","","","","","","","","","","","","","","","","","","","","","","","","","",""
"","rating","","html-slider-response","19","49379","0.0-18.0","0","0","V00tD","Scenes","","475","","","","","50","143","sigurdur-fjalar-jonsson-1KxBabIntpE-unsplash.jpg","15","","","","","","","","","","","","","","","","","","","","","","","","","","","","","","","","","","","","","","","",""
"","rating","","html-slider-response","20","49786","0.0-19.0","0","0","V00tD","Scenes","","406","","","","","50","102","anisur-rahman-K2b7UDed6uQ-unsplash.jpg","16","","","","","","","","","","","","","","","","","","","","","","","","","","","","","","","","","","","","","","","",""
"","rating","","html-slider-response","21","50191","0.0-20.0","0","0","V00tD","Scenes","","404","","","","","50","144","solotravelgoals-7kLufxYoqWk-unsplash.jpg","17","","","","","","","","","","","","","","","","","","","","","","","","","","","","","","","","","","","","","","","",""
"","rating","","html-slider-response","22","50402","0.0-21.0","0","0","V00tD","Scenes","","210","","","","","50","104","artem-sapegin-XGDBdSQ70O0-unsplash.jpg","18","","","","","","","","","","","","","","","","","","","","","","","","","","","","","","","","","","","","","","","",""
"","rating","","html-slider-response","23","50600","0.0-22.0","0","0","V00tD","Scenes","","196","","","","","50","115","darrell-cassell-hoCXpPUMCoE-unsplash.jpg","19","","","","","","","","","","","","","","","","","","","","","","","","","","","","","","","","","","","","","","","",""
"","rating","","html-slider-response","24","50775","0.0-23.0","0","0","V00tD","Scenes","","174","","","","","50","103","anton-darius-FBJugtbHsWU-unsplash.jpg","20","","","","","","","","","","","","","","","","","","","","","","","","","","","","","","","","","","","","","","","",""
"","rating","","html-slider-response","25","50943","0.0-24.0","0","0","V00tD","Scenes","","167","","","","","50","101","aniket-deole-T-tOgjWZ0fQ-unsplash.jpg","21","","","","","","","","","","","","","","","","","","","","","","","","","","","","","","","","","","","","","","","",""
"","rating","","html-slider-response","26","51113","0.0-25.0","0","0","V00tD","Scenes","","168","","","","","50","117","frank-mckenna-OD9EOzfSOh0-unsplash.jpg","22","","","","","","","","","","","","","","","","","","","","","","","","","","","","","","","","","","","","","","","",""
"","rating","","html-slider-response","27","51283","0.0-26.0","0","0","V00tD","Scenes","","168","","","","","50","146","thomas-morse-cuKKa0vWZSY-unsplash.jpg","23","","","","","","","","","","","","","","","","","","","","","","","","","","","","","","","","","","","","","","","",""
"","rating","","html-slider-response","28","51562","0.0-27.0","0","0","V00tD","Scenes","","277","","","","","50","135","mohammad-alizade-4wzRuAb-KWs-unsplash.jpg","24","","","","","","","","","","","","","","","","","","","","","","","","","","","","","","","","","","","","","","","",""
"","rating","","html-slider-response","29","51732","0.0-28.0","0","0","V00tD","Scenes","","169","","","","","50","137","olga-stalska-QaWRyEdlffY-unsplash.jpg","25","","","","","","","","","","","","","","","","","","","","","","","","","","","","","","","","","","","","","","","",""
"","rating","","html-slider-response","30","51911","0.0-29.0","0","0","V00tD","Scenes","","177","","","","","50","110","bruno-van-der-kraan-qez8mNJ3ilU-unsplash.jpg","26","","","","","","","","","","","","","","","","","","","","","","","","","","","","","","","","","","","","","","","",""
"","rating","","html-slider-response","31","52073","0.0-30.0","0","0","V00tD","Scenes","","159","","","","","50","121","jean-pierre-brungs-qxCqkbF7tUc-unsplash.jpg","27","","","","","","","","","","","","","","","","","","","","","","","","","","","","","","","","","","","","","","","",""
"","rating","","html-slider-response","32","52251","0.0-31.0","0","0","V00tD","Scenes","","177","","","","","50","149","yuriy-bogdanov-W51VK3Obcj0-unsplash.jpg","28","","","","","","","","","","","","","","","","","","","","","","","","","","","","","","","","","","","","","","","",""
"","rating","","html-slider-response","33","52421","0.0-32.0","0","0","V00tD","Scenes","","168","","","","","50","114","daniel-sessler-z_9VmsxR8hs-unsplash.jpg","29","","","","","","","","","","","","","","","","","","","","","","","","","","","","","","","","","","","","","","","",""
"","rating","","html-slider-response","34","52598","0.0-33.0","0","0","V00tD","Scenes","","175","","","","","50","127","kace-rodriguez-p3OzJuT_Dks-unsplash.jpg","30","","","","","","","","","","","","","","","","","","","","","","","","","","","","","","","","","","","","","","","",""
"","rating","","html-slider-response","35","52775","0.0-34.0","0","0","V00tD","Scenes","","176","","","","","50","108","benjamin-voros-phIFdC6lA4E-unsplash.jpg","31","","","","","","","","","","","","","","","","","","","","","","","","","","","","","","","","","","","","","","","",""
"","rating","","html-slider-response","36","52960","0.0-35.0","0","0","V00tD","Scenes","","183","","","","","50","125","john-lee-oMneOBYhJxY-unsplash.jpg","32","","","","","","","","","","","","","","","","","","","","","","","","","","","","","","","","","","","","","","","",""
"","rating","","html-slider-response","37","53130","0.0-36.0","0","0","V00tD","Scenes","","168","","","","","50","130","lina-loos-04-C1NZk1hE-unsplash.jpg","33","","","","","","","","","","","","","","","","","","","","","","","","","","","","","","","","","","","","","","","",""
"","rating","","html-slider-response","38","53318","0.0-37.0","0","0","V00tD","Scenes","","186","","","","","50","129","kurt-cotoaga-cqbLg3lZEpk-unsplash.jpg","34","","","","","","","","","","","","","","","","","","","","","","","","","","","","","","","","","","","","","","","",""
"","rating","","html-slider-response","39","53502","0.0-38.0","0","0","V00tD","Scenes","","182","","","","","50","105","ashim-d-silva-S2Q5mdOrrVc-unsplash.jpg","35","","","","","","","","","","","","","","","","","","","","","","","","","","","","","","","","","","","","","","","",""
"","rating","","html-slider-response","40","53674","0.0-39.0","0","0","V00tD","Scenes","","170","","","","","50","107","benjamin-davies-Zm2n2O7Fph4-unsplash.jpg","36","","","","","","","","","","","","","","","","","","","","","","","","","","","","","","","","","","","","","","","",""
"","rating","","html-slider-response","41","53874","0.0-40.0","0","0","V00tD","Scenes","","199","","","","","50","131","luca-bravo-hFzIoD0F_i8-unsplash.jpg","37","","","","","","","","","","","","","","","","","","","","","","","","","","","","","","","","","","","","","","","",""
"","rating","","html-slider-response","42","54071","0.0-41.0","0","0","V00tD","Scenes","","195","","","","","50","139","samsommer-vddccTqwal8-unsplash.jpg","38","","","","","","","","","","","","","","","","","","","","","","","","","","","","","","","","","","","","","","","",""
"","rating","","html-slider-response","43","54258","0.0-42.0","0","0","V00tD","Scenes","","185","","","","","50","123","joel-jasmin-forestbird-efuwb5eBDrI-unsplash.jpg","39","","","","","","","","","","","","","","","","","","","","","","","","","","","","","","","","","","","","","","","",""
"","rating","","html-slider-response","44","54452","0.0-43.0","0","0","V00tD","Scenes","","193","","","","","50","126","jordan-mcqueen-PJCZOWuOxbU-unsplash.jpg","40","","","","","","","","","","","","","","","","","","","","","","","","","","","","","","","","","","","","","","","",""
"","rating","","html-slider-response","45","54661","0.0-44.0","0","0","V00tD","Scenes","","207","","","","","50","128","karsten-wurth-jS0zC2PJ17A-unsplash.jpg","41","","","","","","","","","","","","","","","","","","","","","","","","","","","","","","","","","","","","","","","",""
"","rating","","html-slider-response","46","54865","0.0-45.0","0","0","V00tD","Scenes","","202","","","","","50","106","ashim-d-silva-WeYamle9fDM-unsplash.jpg","42","","","","","","","","","","","","","","","","","","","","","","","","","","","","","","","","","","","","","","","",""
"","rating","","html-slider-response","47","55076","0.0-46.0","0","0","V00tD","Scenes","","210","","","","","50","116","david-marcu-W5MhJ6cy1So-unsplash.jpg","43","","","","","","","","","","","","","","","","","","","","","","","","","","","","","","","","","","","","","","","",""
"","rating","","html-slider-response","48","55280","0.0-47.0","0","0","V00tD","Scenes","","202","","","","","50","109","brigitta-schneiter-hXXRLtTxXCU-unsplash.jpg","44","","","","","","","","","","","","","","","","","","","","","","","","","","","","","","","","","","","","","","","",""
"","rating","","html-slider-response","49","55510","0.0-48.0","0","0","V00tD","Scenes","","228","","","","","50","147","tobias-keller-73F4pKoUkM0-unsplash.jpg","45","","","","","","","","","","","","","","","","","","","","","","","","","","","","","","","","","","","","","","","",""
"","rating","","html-slider-response","50","55720","0.0-49.0","0","0","V00tD","Scenes","","208","","","","","50","120","jarrett-kow-1ZOyYPOBn7I-unsplash.jpg","46","","","","","","","","","","","","","","","","","","","","","","","","","","","","","","","","","","","","","","","",""
"","rating","","html-slider-response","51","55939","0.0-50.0","0","0","V00tD","Scenes","","217","","","","","50","136","nicolas-jehly-LzVB84KkZOE-unsplash.jpg","47","","","","","","","","","","","","","","","","","","","","","","","","","","","","","","","","","","","","","","","",""
"","rating","","html-slider-response","52","56165","0.0-51.0","0","0","V00tD","Scenes","","223","","","","","50","142","sergey-pesterev-y-b_FOmJXdg-unsplash.jpg","48","","","","","","","","","","","","","","","","","","","","","","","","","","","","","","","","","","","","","","","",""
"","rating","","html-slider-response","53","56392","0.0-52.0","0","0","V00tD","Scenes","","225","","","","","50","119","james-wheeler-AFC0XvICMgs-unsplash.jpg","49","","","","","","","","","","","","","","","","","","","","","","","","","","","","","","","","","","","","","","","",""
"","deliberation_instructions","","instructions","54","64691","0.0-53.0-0.0","0","0","V00tD","Scenes","[{""page_index"":0,""viewing_time"":2034},{""page_index"":1,""viewing_time"":1472},{""page_index"":2,""viewing_time"":796},{""page_index"":3,""viewing_time"":2786},{""page_index"":4,""viewing_time"":1207}]","8295","","","","","","","","","","","","","","","","","","","","","","","","","","","","","","","","","","","","","","","","","","","","","","","",""
"","","","survey-multi-choice","55","70956","0.0-53.0-1.0","0","0","V00tD","Scenes","","6260","{""Q0"":""True"",""Q1"":""True"",""Q2"":""Consider carefully and take your time (up to 10 seconds)"",""Q3"":""True"",""Q4"":""D""}","deliberation_comprehension_check","0","","","","","","","","","","","","","","","","","","","","","","","","","","","","","","","","","","","","","","","","","","","","",""
"","start_phase","","html-keyboard-response","56","72805","0.0-54.0","0","0","V00tD","Scenes","","1846","","","","78","","","","","","","","","","","","","","","","","","","","","","","","","","","","","","","","","","","","","","","","","","","",""
"","first_deliberation_block","","html-keyboard-response","57","73971","0.0-55.0","0","0","V00tD","Scenes","","1164","","","","78","","","","","","","","","","","","","","","","","","","","","","","","","","","","","","","","","","","","","","","","","","","",""
"","fixation","","html-keyboard-response","58","74974","0.0-56.0-0.0","0","0","V00tD","Scenes","","null","","","","null","","","","","","","","","","","","","","","","","","","","","","","","","","","","","","","","","","","","","","","","","","","",""
"","deliberation","","html-keyboard-response","59","75594","0.0-56.0-1.0","0","0","V00tD","Scenes","","618","","","","75","","","","0","117","137","1","1","50","50","frank-mckenna-OD9EOzfSOh0-unsplash.jpg","olga-stalska-QaWRyEdlffY-unsplash.jpg","1","0","137","117","","","","","","","","","","","","","","","","","","","","","","","","","","","",""
"","choice_confirmation","","html-keyboard-response","60","76097","0.0-56.0-2.0-0.0","0","0","V00tD","Scenes","","null","","","","null","","","","0","117","137","","","","","","","","","","","","","","","","","","","","","","","","","","","","","","","","","","","","","",""
"","explain_trial","","survey-text","61","77592","0.0-56.0-5.0-0.0","0","0","V00tD","Scenes","","1492","{""Q0"":""""}","","","","","","","0","117","137","","","","","","","","","","","{""Q0"":""""}","","","","","","","","","","","","","","","","","","","","","","","","","","",""
"","fixation","","html-keyboard-response","62","78595","0.0-57.0-0.0","0","0","V00tD","Scenes","","null","","","","null","","","","","","","","","","","","","","","","","","","","","","","","","","","","","","","","","","","","","","","","","","","",""
"","deliberation","","html-keyboard-response","63","79582","0.0-57.0-1.0","0","0","V00tD","Scenes","","984","","","","68","","","","1","146","102","0","-1","50","50","thomas-morse-cuKKa0vWZSY-unsplash.jpg","anisur-rahman-K2b7UDed6uQ-unsplash.jpg","1","1","146","102","","","","","","","","","","","","","","","","","","","","","","","","","","","",""
"","choice_confirmation","","html-keyboard-response","64","80088","0.0-57.0-2.0-0.0","0","0","V00tD","Scenes","","null","","","","null","","","","1","146","102","","","","","","","","","","","","","","","","","","","","","","","","","","","","","","","","","","","","","",""
"","fixation","","html-keyboard-response","65","81095","0.0-58.0-0.0","0","0","V00tD","Scenes","","null","","","","null","","","","","","","","","","","","","","","","","","","","","","","","","","","","","","","","","","","","","","","","","","","",""
"","deliberation","","html-keyboard-response","66","81460","0.0-58.0-1.0","0","0","V00tD","Scenes","","362","","","","68","","","","2","103","107","1","1","50","50","anton-darius-FBJugtbHsWU-unsplash.jpg","benjamin-davies-Zm2n2O7Fph4-unsplash.jpg","1","1","103","107","","","","","","","","","","","","","","","","","","","","","","","","","","","",""
"","choice_confirmation","","html-keyboard-response","67","81964","0.0-58.0-2.0-0.0","0","0","V00tD","Scenes","","null","","","","null","","","","2","103","107","","","","","","","","","","","","","","","","","","","","","","","","","","","","","","","","","","","","","",""
"","explain_trial","","survey-text","68","83038","0.0-58.0-5.0-0.0","0","0","V00tD","Scenes","","1071","{""Q0"":""""}","","","","","","","2","103","107","","","","","","","","","","","{""Q0"":""""}","","","","","","","","","","","","","","","","","","","","","","","","","","",""
"","fixation","","html-keyboard-response","69","84045","0.0-59.0-0.0","0","0","V00tD","Scenes","","null","","","","null","","","","","","","","","","","","","","","","","","","","","","","","","","","","","","","","","","","","","","","","","","","",""
"","deliberation","","html-keyboard-response","70","85136","0.0-59.0-1.0","0","0","V00tD","Scenes","","1088","","","","68","","","","3","108","125","0","1","50","50","benjamin-voros-phIFdC6lA4E-unsplash.jpg","john-lee-oMneOBYhJxY-unsplash.jpg","1","1","108","125","","","","","","","","","","","","","","","","","","","","","","","","","","","",""
"","choice_confirmation","","html-keyboard-response","71","85641","0.0-59.0-2.0-0.0","0","0","V00tD","Scenes","","null","","","","null","","","","3","108","125","","","","","","","","","","","","","","","","","","","","","","","","","","","","","","","","","","","","","",""
"","fixation","","html-keyboard-response","72","86653","0.0-60.0-0.0","0","0","V00tD","Scenes","","null","","","","null","","","","","","","","","","","","","","","","","","","","","","","","","","","","","","","","","","","","","","","","","","","",""
"","deliberation","","html-keyboard-response","73","87556","0.0-60.0-1.0","0","0","V00tD","Scenes","","902","","","","68","","","","4","129","118","0","-1","50","50","kurt-cotoaga-cqbLg3lZEpk-unsplash.jpg","henry-be-NLF6hTe4PAg-unsplash.jpg","1","1","129","118","","","","","","","","","","","","","","","","","","","","","","","","","","","",""
"","choice_confirmation","","html-keyboard-response","74","88061","0.0-60.0-2.0-0.0","0","0","V00tD","Scenes","","null","","","","null","","","","4","129","118","","","","","","","","","","","","","","","","","","","","","","","","","","","","","","","","","","","","","",""
"","fixation","","html-keyboard-response","75","89065","0.0-61.0-0.0","0","0","V00tD","Scenes","","null","","","","null","","","","","","","","","","","","","","","","","","","","","","","","","","","","","","","","","","","","","","","","","","","",""
"","deliberation","","html-keyboard-response","76","89945","0.0-61.0-1.0","0","0","V00tD","Scenes","","879","","","","68","","","","5","115","114","0","-1","50","50","darrell-cassell-hoCXpPUMCoE-unsplash.jpg","daniel-sessler-z_9VmsxR8hs-unsplash.jpg","1","1","115","114","","","","","","","","","","","","","","","","","","","","","","","","","","","",""
"","choice_confirmation","","html-keyboard-response","77","90451","0.0-61.0-2.0-0.0","0","0","V00tD","Scenes","","null","","","","null","","","","5","115","114","","","","","","","","","","","","","","","","","","","","","","","","","","","","","","","","","","","","","",""
"","fixation","","html-keyboard-response","78","91454","0.0-62.0-0.0","0","0","V00tD","Scenes","","null","","","","null","","","","","","","","","","","","","","","","","","","","","","","","","","","","","","","","","","","","","","","","","","","",""
"","deliberation","","html-keyboard-response","79","92163","0.0-62.0-1.0","0","0","V00tD","Scenes","","707","","","","68","","","","6","144","143","1","-1","50","50","solotravelgoals-7kLufxYoqWk-unsplash.jpg","sigurdur-fjalar-jonsson-1KxBabIntpE-unsplash.jpg","1","1","144","143","","","","","","","","","","","","","","","","","","","","","","","","","","","",""
"","choice_confirmation","","html-keyboard-response","80","92665","0.0-62.0-2.0-0.0","0","0","V00tD","Scenes","","null","","","","null","","","","6","144","143","","","","","","","","","","","","","","","","","","","","","","","","","","","","","","","","","","","","","",""
"","explain_trial","","survey-text","81","93950","0.0-62.0-5.0-0.0","0","0","V00tD","Scenes","","1282","{""Q0"":""""}","","","","","","","6","144","143","","","","","","","","","","","{""Q0"":""""}","","","","","","","","","","","","","","","","","","","","","","","","","","",""
"","fixation","","html-keyboard-response","82","94956","0.0-63.0-0.0","0","0","V00tD","Scenes","","null","","","","null","","","","","","","","","","","","","","","","","","","","","","","","","","","","","","","","","","","","","","","","","","","",""
"","deliberation","","html-keyboard-response","83","95992","0.0-63.0-1.0","0","0","V00tD","Scenes","","1035","","","","68","","","","7","130","101","1","1","50","50","lina-loos-04-C1NZk1hE-unsplash.jpg","aniket-deole-T-tOgjWZ0fQ-unsplash.jpg","1","1","130","101","","","","","","","","","","","","","","","","","","","","","","","","","","","",""
"","choice_confirmation","","html-keyboard-response","84","96495","0.0-63.0-2.0-0.0","0","0","V00tD","Scenes","","null","","","","null","","","","7","130","101","","","","","","","","","","","","","","","","","","","","","","","","","","","","","","","","","","","","","",""
"","explain_trial","","survey-text","85","97626","0.0-63.0-5.0-0.0","0","0","V00tD","Scenes","","1128","{""Q0"":""""}","","","","","","","7","130","101","","","","","","","","","","","{""Q0"":""""}","","","","","","","","","","","","","","","","","","","","","","","","","","",""
"","fixation","","html-keyboard-response","86","98629","0.0-64.0-0.0","0","0","V00tD","Scenes","","null","","","","null","","","","","","","","","","","","","","","","","","","","","","","","","","","","","","","","","","","","","","","","","","","",""
"","deliberation","","html-keyboard-response","87","99311","0.0-64.0-1.0","0","0","V00tD","Scenes","","680","","","","68","","","","8","127","121","1","1","50","50","kace-rodriguez-p3OzJuT_Dks-unsplash.jpg","jean-pierre-brungs-qxCqkbF7tUc-unsplash.jpg","1","1","127","121","","","","","","","","","","","","","","","","","","","","","","","","","","","",""
"","choice_confirmation","","html-keyboard-response","88","99814","0.0-64.0-2.0-0.0","0","0","V00tD","Scenes","","null","","","","null","","","","8","127","121","","","","","","","","","","","","","","","","","","","","","","","","","","","","","","","","","","","","","",""
"","explain_trial","","survey-text","89","100780","0.0-64.0-5.0-0.0","0","0","V00tD","Scenes","","963","{""Q0"":""""}","","","","","","","8","127","121","","","","","","","","","","","{""Q0"":""""}","","","","","","","","","","","","","","","","","","","","","","","","","","",""
"","fixation","","html-keyboard-response","90","101784","0.0-65.0-0.0","0","0","V00tD","Scenes","","null","","","","null","","","","","","","","","","","","","","","","","","","","","","","","","","","","","","","","","","","","","","","","","","","",""
"","deliberation","","html-keyboard-response","91","102523","0.0-65.0-1.0","0","0","V00tD","Scenes","","738","","","","68","","","","9","105","104","1","-1","50","50","ashim-d-silva-S2Q5mdOrrVc-unsplash.jpg","artem-sapegin-XGDBdSQ70O0-unsplash.jpg","1","1","105","104","","","","","","","","","","","","","","","","","","","","","","","","","","","",""
"","choice_confirmation","","html-keyboard-response","92","103026","0.0-65.0-2.0-0.0","0","0","V00tD","Scenes","","null","","","","null","","","","9","105","104","","","","","","","","","","","","","","","","","","","","","","","","","","","","","","","","","","","","","",""
"","explain_trial","","survey-text","93","104057","0.0-65.0-5.0-0.0","0","0","V00tD","Scenes","","1028","{""Q0"":""""}","","","","","","","9","105","104","","","","","","","","","","","{""Q0"":""""}","","","","","","","","","","","","","","","","","","","","","","","","","","",""
"","fixation","","html-keyboard-response","94","105061","0.0-66.0-0.0","0","0","V00tD","Scenes","","null","","","","null","","","","","","","","","","","","","","","","","","","","","","","","","","","","","","","","","","","","","","","","","","","",""
"","deliberation","","html-keyboard-response","95","105564","0.0-66.0-1.0","0","0","V00tD","Scenes","","501","","","","68","","","","10","135","100","0","1","50","50","mohammad-alizade-4wzRuAb-KWs-unsplash.jpg","aleksandra-boguslawska-MS7KD9Ti7FQ-unsplash.jpg","1","1","135","100","","","","","","","","","","","","","","","","","","","","","","","","","","","",""
"","choice_confirmation","","html-keyboard-response","96","106066","0.0-66.0-2.0-0.0","0","0","V00tD","Scenes","","null","","","","null","","","","10","135","100","","","","","","","","","","","","","","","","","","","","","","","","","","","","","","","","","","","","","",""
"","fixation","","html-keyboard-response","97","107069","0.0-67.0-0.0","0","0","V00tD","Scenes","","null","","","","null","","","","","","","","","","","","","","","","","","","","","","","","","","","","","","","","","","","","","","","","","","","",""
"","deliberation","","html-keyboard-response","98","107703","0.0-67.0-1.0","0","0","V00tD","Scenes","","633","","","","68","","","","11","149","110","0","-1","50","50","yuriy-bogdanov-W51VK3Obcj0-unsplash.jpg","bruno-van-der-kraan-qez8mNJ3ilU-unsplash.jpg","1","1","149","110","","","","","","","","","","","","","","","","","","","","","","","","","","","",""
"","choice_confirmation","","html-keyboard-response","99","108207","0.0-67.0-2.0-0.0","0","0","V00tD","Scenes","","null","","","","null","","","","11","149","110","","","","","","","","","","","","","","","","","","","","","","","","","","","","","","","","","","","","","",""
"","practice_deliberation_again","","html-keyboard-response","100","110107","0.0-67.0-6.0-0.0","0","0","V00tD","Scenes","","1898","","","","78","","","","","","","","","","","","","","","","","","","","","","","","","","","","","","","","","","","","","","","","","","","",""
"","fixation","","html-keyboard-response","101","111112","0.0-68.0-0.0","0","0","V00tD","Scenes","","null","","","","null","","","","","","","","","","","","","","","","","","","","","","","","","","","","","","","","","","","","","","","","","","","",""
"","deliberation","","html-keyboard-response","102","111435","0.0-68.0-1.0","0","0","V00tD","Scenes","","321","","","","68","","","","12","130","101","0","1","50","50","lina-loos-04-C1NZk1hE-unsplash.jpg","aniket-deole-T-tOgjWZ0fQ-unsplash.jpg","2","1","130","101","","","","","","","","","","","","","","","","","","","","","","","","","","","",""
"","choice_confirmation","","html-keyboard-response","103","111941","0.0-68.0-2.0-0.0","0","0","V00tD","Scenes","","null","","","","null","","","","12","130","101","","","","","","","","","","","","","","","","","","","","","","","","","","","","","","","","","","","","","",""
"","fixation","","html-keyboard-response","104","112945","0.0-69.0-0.0","0","0","V00tD","Scenes","","null","","","","null","","","","","","","","","","","","","","","","","","","","","","","","","","","","","","","","","","","","","","","","","","","",""
"","deliberation","","html-keyboard-response","105","113614","0.0-69.0-1.0","0","0","V00tD","Scenes","","667","","","","68","","","","13","146","102","1","-1","50","50","thomas-morse-cuKKa0vWZSY-unsplash.jpg","anisur-rahman-K2b7UDed6uQ-unsplash.jpg","2","1","146","102","","","","","","","","","","","","","","","","","","","","","","","","","","","",""
"","choice_confirmation","","html-keyboard-response","106","114117","0.0-69.0-2.0-0.0","0","0","V00tD","Scenes","","null","","","","null","","","","13","146","102","","","","","","","","","","","","","","","","","","","","","","","","","","","","","","","","","","","","","",""
"","explain_trial","","survey-text","107","115283","0.0-69.0-5.0-0.0","0","0","V00tD","Scenes","","1164","{""Q0"":""""}","","","","","","","13","146","102","","","","","","","","","","","{""Q0"":""""}","","","","","","","","","","","","","","","","","","","","","","","","","","",""
"","fixation","","html-keyboard-response","108","116288","0.0-70.0-0.0","0","0","V00tD","Scenes","","null","","","","null","","","","","","","","","","","","","","","","","","","","","","","","","","","","","","","","","","","","","","","","","","","",""
"","deliberation","","html-keyboard-response","109","116635","0.0-70.0-1.0","0","0","V00tD","Scenes","","346","","","","68","","","","14","149","110","1","-1","50","50","yuriy-bogdanov-W51VK3Obcj0-unsplash.jpg","bruno-van-der-kraan-qez8mNJ3ilU-unsplash.jpg","2","1","149","110","","","","","","","","","","","","","","","","","","","","","","","","","","","",""
"","choice_confirmation","","html-keyboard-response","110","117138","0.0-70.0-2.0-0.0","0","0","V00tD","Scenes","","null","","","","null","","","","14","149","110","","","","","","","","","","","","","","","","","","","","","","","","","","","","","","","","","","","","","",""
"","explain_trial","","survey-text","111","118195","0.0-70.0-5.0-0.0","0","0","V00tD","Scenes","","1055","{""Q0"":""""}","","","","","","","14","149","110","","","","","","","","","","","{""Q0"":""""}","","","","","","","","","","","","","","","","","","","","","","","","","","",""
"","fixation","","html-keyboard-response","112","119198","0.0-71.0-0.0","0","0","V00tD","Scenes","","null","","","","null","","","","","","","","","","","","","","","","","","","","","","","","","","","","","","","","","","","","","","","","","","","",""
"","deliberation","","html-keyboard-response","113","119549","0.0-71.0-1.0","0","0","V00tD","Scenes","","349","","","","68","","","","15","105","104","0","-1","50","50","ashim-d-silva-S2Q5mdOrrVc-unsplash.jpg","artem-sapegin-XGDBdSQ70O0-unsplash.jpg","2","1","105","104","","","","","","","","","","","","","","","","","","","","","","","","","","","",""
"","choice_confirmation","","html-keyboard-response","114","120053","0.0-71.0-2.0-0.0","0","0","V00tD","Scenes","","null","","","","null","","","","15","105","104","","","","","","","","","","","","","","","","","","","","","","","","","","","","","","","","","","","","","",""
"","fixation","","html-keyboard-response","115","121058","0.0-72.0-0.0","0","0","V00tD","Scenes","","null","","","","null","","","","","","","","","","","","","","","","","","","","","","","","","","","","","","","","","","","","","","","","","","","",""
"","deliberation","","html-keyboard-response","116","121510","0.0-72.0-1.0","0","0","V00tD","Scenes","","449","","","","68","","","","16","144","143","0","-1","50","50","solotravelgoals-7kLufxYoqWk-unsplash.jpg","sigurdur-fjalar-jonsson-1KxBabIntpE-unsplash.jpg","2","1","144","143","","","","","","","","","","","","","","","","","","","","","","","","","","","",""
"","choice_confirmation","","html-keyboard-response","117","122012","0.0-72.0-2.0-0.0","0","0","V00tD","Scenes","","null","","","","null","","","","16","144","143","","","","","","","","","","","","","","","","","","","","","","","","","","","","","","","","","","","","","",""
"","fixation","","html-keyboard-response","118","123015","0.0-73.0-0.0","0","0","V00tD","Scenes","","null","","","","null","","","","","","","","","","","","","","","","","","","","","","","","","","","","","","","","","","","","","","","","","","","",""
"","deliberation","","html-keyboard-response","119","123450","0.0-73.0-1.0","0","0","V00tD","Scenes","","432","","","","68","","","","17","108","125","1","1","50","50","benjamin-voros-phIFdC6lA4E-unsplash.jpg","john-lee-oMneOBYhJxY-unsplash.jpg","2","1","108","125","","","","","","","","","","","","","","","","","","","","","","","","","","","",""
"","choice_confirmation","","html-keyboard-response","120","123954","0.0-73.0-2.0-0.0","0","0","V00tD","Scenes","","null","","","","null","","","","17","108","125","","","","","","","","","","","","","","","","","","","","","","","","","","","","","","","","","","","","","",""
"","explain_trial","","survey-text","121","125067","0.0-73.0-5.0-0.0","0","0","V00tD","Scenes","","1110","{""Q0"":""""}","","","","","","","17","108","125","","","","","","","","","","","{""Q0"":""""}","","","","","","","","","","","","","","","","","","","","","","","","","","",""
"","fixation","","html-keyboard-response","122","126073","0.0-74.0-0.0","0","0","V00tD","Scenes","","null","","","","null","","","","","","","","","","","","","","","","","","","","","","","","","","","","","","","","","","","","","","","","","","","",""
"","deliberation","","html-keyboard-response","123","126358","0.0-74.0-1.0","0","0","V00tD","Scenes","","283","","","","68","","","","18","127","121","0","1","50","50","kace-rodriguez-p3OzJuT_Dks-unsplash.jpg","jean-pierre-brungs-qxCqkbF7tUc-unsplash.jpg","2","1","127","121","","","","","","","","","","","","","","","","","","","","","","","","","","","",""
"","choice_confirmation","","html-keyboard-response","124","126862","0.0-74.0-2.0-0.0","0","0","V00tD","Scenes","","null","","","","null","","","","18","127","121","","","","","","","","","","","","","","","","","","","","","","","","","","","","","","","","","","","","","",""
"","deliberation_too_fast","","html-keyboard-response","125","128366","0.0-74.0-3.0-0.0","1","0","V00tD","Scenes","","null","","","","null","","","","18","","","","","","","","","","","","","","","","","","","","","","","","","","","","","","","","","","","","","","","",""
"","fixation","","html-keyboard-response","126","129373","0.0-75.0-0.0","0","0","V00tD","Scenes","","null","","","","null","","","","","","","","","","","","","","","","","","","","","","","","","","","","","","","","","","","","","","","","","","","",""
"","deliberation","","html-keyboard-response","127","129797","0.0-75.0-1.0","0","0","V00tD","Scenes","","422","","","","68","","","","19","115","114","1","-1","50","50","darrell-cassell-hoCXpPUMCoE-unsplash.jpg","daniel-sessler-z_9VmsxR8hs-unsplash.jpg","2","1","115","114","","","","","","","","","","","","","","","","","","","","","","","","","","","",""
"","choice_confirmation","","html-keyboard-response","128","130300","0.0-75.0-2.0-0.0","0","0","V00tD","Scenes","","null","","","","null","","","","19","115","114","","","","","","","","","","","","","","","","","","","","","","","","","","","","","","","","","","","","","",""
"","explain_trial","","survey-text","129","131409","0.0-75.0-5.0-0.0","0","0","V00tD","Scenes","","1107","{""Q0"":""""}","","","","","","","19","115","114","","","","","","","","","","","{""Q0"":""""}","","","","","","","","","","","","","","","","","","","","","","","","","","",""
"","fixation","","html-keyboard-response","130","132416","0.0-76.0-0.0","0","0","V00tD","Scenes","","null","","","","null","","","","","","","","","","","","","","","","","","","","","","","","","","","","","","","","","","","","","","","","","","","",""
"","deliberation","","html-keyboard-response","131","133140","0.0-76.0-1.0","0","0","V00tD","Scenes","","723","","","","68","","","","20","117","137","0","1","50","50","frank-mckenna-OD9EOzfSOh0-unsplash.jpg","olga-stalska-QaWRyEdlffY-unsplash.jpg","2","1","117","137","","","","","","","","","","","","","","","","","","","","","","","","","","","",""
"","choice_confirmation","","html-keyboard-response","132","133645","0.0-76.0-2.0-0.0","0","0","V00tD","Scenes","","null","","","","null","","","","20","117","137","","","","","","","","","","","","","","","","","","","","","","","","","","","","","","","","","","","","","",""
"","fixation","","html-keyboard-response","133","134649","0.0-77.0-0.0","0","0","V00tD","Scenes","","null","","","","null","","","","","","","","","","","","","","","","","","","","","","","","","","","","","","","","","","","","","","","","","","","",""
"","deliberation","","html-keyboard-response","134","135308","0.0-77.0-1.0","0","0","V00tD","Scenes","","656","","","","68","","","","21","135","100","1","1","50","50","mohammad-alizade-4wzRuAb-KWs-unsplash.jpg","aleksandra-boguslawska-MS7KD9Ti7FQ-unsplash.jpg","2","1","135","100","","","","","","","","","","","","","","","","","","","","","","","","","","","",""
"","choice_confirmation","","html-keyboard-response","135","135812","0.0-77.0-2.0-0.0","0","0","V00tD","Scenes","","null","","","","null","","","","21","135","100","","","","","","","","","","","","","","","","","","","","","","","","","","","","","","","","","","","","","",""
"","explain_trial","","survey-text","136","136999","0.0-77.0-5.0-0.0","0","0","V00tD","Scenes","","1184","{""Q0"":""""}","","","","","","","21","135","100","","","","","","","","","","","{""Q0"":""""}","","","","","","","","","","","","","","","","","","","","","","","","","","",""
"","fixation","","html-keyboard-response","137","138002","0.0-78.0-0.0","0","0","V00tD","Scenes","","null","","","","null","","","","","","","","","","","","","","","","","","","","","","","","","","","","","","","","","","","","","","","","","","","",""
"","deliberation","","html-keyboard-response","138","138593","0.0-78.0-1.0","0","0","V00tD","Scenes","","589","","","","68","","","","22","103","107","0","1","50","50","anton-darius-FBJugtbHsWU-unsplash.jpg","benjamin-davies-Zm2n2O7Fph4-unsplash.jpg","2","1","103","107","","","","","","","","","","","","","","","","","","","","","","","","","","","",""
"","choice_confirmation","","html-keyboard-response","139","139095","0.0-78.0-2.0-0.0","0","0","V00tD","Scenes","","null","","","","null","","","","22","103","107","","","","","","","","","","","","","","","","","","","","","","","","","","","","","","","","","","","","","",""
"","fixation","","html-keyboard-response","140","140102","0.0-79.0-0.0","0","0","V00tD","Scenes","","null","","","","null","","","","","","","","","","","","","","","","","","","","","","","","","","","","","","","","","","","","","","","","","","","",""
"","deliberation","","html-keyboard-response","141","140753","0.0-79.0-1.0","0","0","V00tD","Scenes","","648","","","","68","","","","23","129","118","1","-1","50","50","kurt-cotoaga-cqbLg3lZEpk-unsplash.jpg","henry-be-NLF6hTe4PAg-unsplash.jpg","2","1","129","118","","","","","","","","","","","","","","","","","","","","","","","","","","","",""
"","choice_confirmation","","html-keyboard-response","142","141255","0.0-79.0-2.0-0.0","0","0","V00tD","Scenes","","null","","","","null","","","","23","129","118","","","","","","","","","","","","","","","","","","","","","","","","","","","","","","","","","","","","","",""
"","explain_trial","","survey-text","143","143072","0.0-79.0-5.0-0.0","0","0","V00tD","Scenes","","1814","{""Q0"":""""}","","","","","","","23","129","118","","","","","","","","","","","{""Q0"":""""}","","","","","","","","","","","","","","","","","","","","","","","","","","",""
"","start_critical_deliberation_block","","html-keyboard-response","144","144261","0.0-79.0-7.0-0.0","0","0","V00tD","Scenes","","1187","","","","78","","","","","","","","","","","","","","","","","","","","","","","","","","","","","","","","","","","","","","","","","","","",""
"","fixation","","html-keyboard-response","145","145266","0.0-80.0-0.0","0","0","V00tD","Scenes","","null","","","","null","","","","","","","","","","","","","","","","","","","","","","","","","","","","","","","","","","","","","","","","","","","",""
"","deliberation","","html-keyboard-response","146","145639","0.0-80.0-1.0","0","0","V00tD","Scenes","","371","","","","68","","","","24","146","102","0","-1","50","50","thomas-morse-cuKKa0vWZSY-unsplash.jpg","anisur-rahman-K2b7UDed6uQ-unsplash.jpg","3","1","146","102","","","","","","","","","","","","","","","","","","","","","","","","","","","",""
"","choice_confirmation","","html-keyboard-response","147","146142","0.0-80.0-2.0-0.0","0","0","V00tD","Scenes","","null","","","","null","","","","24","146","102","","","","","","","","","","","","","","","","","","","","","","","","","","","","","","","","","","","","","",""
"","fixation","","html-keyboard-response","148","147145","0.0-81.0-0.0","0","0","V00tD","Scenes","","null","","","","null","","","","","","","","","","","","","","","","","","","","","","","","","","","","","","","","","","","","","","","","","","","",""
"","deliberation","","html-keyboard-response","149","147925","0.0-81.0-1.0","0","0","V00tD","Scenes","","778","","","","68","","","","25","127","121","0","1","50","50","kace-rodriguez-p3OzJuT_Dks-unsplash.jpg","jean-pierre-brungs-qxCqkbF7tUc-unsplash.jpg","3","1","127","121","","","","","","","","","","","","","","","","","","","","","","","","","","","",""
"","choice_confirmation","","html-keyboard-response","150","148429","0.0-81.0-2.0-0.0","0","0","V00tD","Scenes","","null","","","","null","","","","25","127","121","","","","","","","","","","","","","","","","","","","","","","","","","","","","","","","","","","","","","",""
"","fixation","","html-keyboard-response","151","149435","0.0-82.0-0.0","0","0","V00tD","Scenes","","null","","","","null","","","","","","","","","","","","","","","","","","","","","","","","","","","","","","","","","","","","","","","","","","","",""
"","deliberation","","html-keyboard-response","152","150104","0.0-82.0-1.0","0","0","V00tD","Scenes","","667","","","","68","","","","26","144","143","0","-1","50","50","solotravelgoals-7kLufxYoqWk-unsplash.jpg","sigurdur-fjalar-jonsson-1KxBabIntpE-unsplash.jpg","3","1","144","143","","","","","","","","","","","","","","","","","","","","","","","","","","","",""
"","choice_confirmation","","html-keyboard-response","153","150608","0.0-82.0-2.0-0.0","0","0","V00tD","Scenes","","null","","","","null","","","","26","144","143","","","","","","","","","","","","","","","","","","","","","","","","","","","","","","","","","","","","","",""
"","fixation","","html-keyboard-response","154","151612","0.0-83.0-0.0","0","0","V00tD","Scenes","","null","","","","null","","","","","","","","","","","","","","","","","","","","","","","","","","","","","","","","","","","","","","","","","","","",""
"","deliberation","","html-keyboard-response","155","152322","0.0-83.0-1.0","0","0","V00tD","Scenes","","708","","","","68","","","","27","129","118","0","-1","50","50","kurt-cotoaga-cqbLg3lZEpk-unsplash.jpg","henry-be-NLF6hTe4PAg-unsplash.jpg","3","1","129","118","","","","","","","","","","","","","","","","","","","","","","","","","","","",""
"","choice_confirmation","","html-keyboard-response","156","152824","0.0-83.0-2.0-0.0","0","0","V00tD","Scenes","","null","","","","null","","","","27","129","118","","","","","","","","","","","","","","","","","","","","","","","","","","","","","","","","","","","","","",""
"","fixation","","html-keyboard-response","157","153829","0.0-84.0-0.0","0","0","V00tD","Scenes","","null","","","","null","","","","","","","","","","","","","","","","","","","","","","","","","","","","","","","","","","","","","","","","","","","",""
"","deliberation","","html-keyboard-response","158","154311","0.0-84.0-1.0","0","0","V00tD","Scenes","","480","","","","68","","","","28","115","114","0","-1","50","50","darrell-cassell-hoCXpPUMCoE-unsplash.jpg","daniel-sessler-z_9VmsxR8hs-unsplash.jpg","3","1","115","114","","","","","","","","","","","","","","","","","","","","","","","","","","","",""
"","choice_confirmation","","html-keyboard-response","159","154816","0.0-84.0-2.0-0.0","0","0","V00tD","Scenes","","null","","","","null","","","","28","115","114","","","","","","","","","","","","","","","","","","","","","","","","","","","","","","","","","","","","","",""
"","fixation","","html-keyboard-response","160","155821","0.0-85.0-0.0","0","0","V00tD","Scenes","","null","","","","null","","","","","","","","","","","","","","","","","","","","","","","","","","","","","","","","","","","","","","","","","","","",""
"","deliberation","","html-keyboard-response","161","156339","0.0-85.0-1.0","0","0","V00tD","Scenes","","516","","","","68","","","","29","117","137","0","1","50","50","frank-mckenna-OD9EOzfSOh0-unsplash.jpg","olga-stalska-QaWRyEdlffY-unsplash.jpg","3","1","117","137","","","","","","","","","","","","","","","","","","","","","","","","","","","",""
"","choice_confirmation","","html-keyboard-response","162","156841","0.0-85.0-2.0-0.0","0","0","V00tD","Scenes","","null","","","","null","","","","29","117","137","","","","","","","","","","","","","","","","","","","","","","","","","","","","","","","","","","","","","",""
"","fixation","","html-keyboard-response","163","157845","0.0-86.0-0.0","0","0","V00tD","Scenes","","null","","","","null","","","","","","","","","","","","","","","","","","","","","","","","","","","","","","","","","","","","","","","","","","","",""
"","deliberation","","html-keyboard-response","164","158503","0.0-86.0-1.0","0","0","V00tD","Scenes","","656","","","","68","","","","30","105","104","0","-1","50","50","ashim-d-silva-S2Q5mdOrrVc-unsplash.jpg","artem-sapegin-XGDBdSQ70O0-unsplash.jpg","3","1","105","104","","","","","","","","","","","","","","","","","","","","","","","","","","","",""
"","choice_confirmation","","html-keyboard-response","165","159008","0.0-86.0-2.0-0.0","0","0","V00tD","Scenes","","null","","","","null","","","","30","105","104","","","","","","","","","","","","","","","","","","","","","","","","","","","","","","","","","","","","","",""
"","fixation","","html-keyboard-response","166","160012","0.0-87.0-0.0","0","0","V00tD","Scenes","","null","","","","null","","","","","","","","","","","","","","","","","","","","","","","","","","","","","","","","","","","","","","","","","","","",""
"","deliberation","","html-keyboard-response","167","160932","0.0-87.0-1.0","0","0","V00tD","Scenes","","918","","","","68","","","","31","108","125","0","1","50","50","benjamin-voros-phIFdC6lA4E-unsplash.jpg","john-lee-oMneOBYhJxY-unsplash.jpg","3","1","108","125","","","","","","","","","","","","","","","","","","","","","","","","","","","",""
"","choice_confirmation","","html-keyboard-response","168","161437","0.0-87.0-2.0-0.0","0","0","V00tD","Scenes","","null","","","","null","","","","31","108","125","","","","","","","","","","","","","","","","","","","","","","","","","","","","","","","","","","","","","",""
"","fixation","","html-keyboard-response","169","162441","0.0-88.0-0.0","0","0","V00tD","Scenes","","null","","","","null","","","","","","","","","","","","","","","","","","","","","","","","","","","","","","","","","","","","","","","","","","","",""
"","deliberation","","html-keyboard-response","170","163051","0.0-88.0-1.0","0","0","V00tD","Scenes","","608","","","","68","","","","32","135","100","0","1","50","50","mohammad-alizade-4wzRuAb-KWs-unsplash.jpg","aleksandra-boguslawska-MS7KD9Ti7FQ-unsplash.jpg","3","1","135","100","","","","","","","","","","","","","","","","","","","","","","","","","","","",""
"","choice_confirmation","","html-keyboard-response","171","163554","0.0-88.0-2.0-0.0","0","0","V00tD","Scenes","","null","","","","null","","","","32","135","100","","","","","","","","","","","","","","","","","","","","","","","","","","","","","","","","","","","","","",""
"","fixation","","html-keyboard-response","172","164557","0.0-89.0-0.0","0","0","V00tD","Scenes","","null","","","","null","","","","","","","","","","","","","","","","","","","","","","","","","","","","","","","","","","","","","","","","","","","",""
"","deliberation","","html-keyboard-response","173","165112","0.0-89.0-1.0","0","0","V00tD","Scenes","","553","","","","68","","","","33","103","107","0","1","50","50","anton-darius-FBJugtbHsWU-unsplash.jpg","benjamin-davies-Zm2n2O7Fph4-unsplash.jpg","3","1","103","107","","","","","","","","","","","","","","","","","","","","","","","","","","","",""
"","choice_confirmation","","html-keyboard-response","174","165616","0.0-89.0-2.0-0.0","0","0","V00tD","Scenes","","null","","","","null","","","","33","103","107","","","","","","","","","","","","","","","","","","","","","","","","","","","","","","","","","","","","","",""
"","fixation","","html-keyboard-response","175","166622","0.0-90.0-0.0","0","0","V00tD","Scenes","","null","","","","null","","","","","","","","","","","","","","","","","","","","","","","","","","","","","","","","","","","","","","","","","","","",""
"","deliberation","","html-keyboard-response","176","167176","0.0-90.0-1.0","0","0","V00tD","Scenes","","551","","","","68","","","","34","130","101","0","1","50","50","lina-loos-04-C1NZk1hE-unsplash.jpg","aniket-deole-T-tOgjWZ0fQ-unsplash.jpg","3","1","130","101","","","","","","","","","","","","","","","","","","","","","","","","","","","",""
"","choice_confirmation","","html-keyboard-response","177","167678","0.0-90.0-2.0-0.0","0","0","V00tD","Scenes","","null","","","","null","","","","34","130","101","","","","","","","","","","","","","","","","","","","","","","","","","","","","","","","","","","","","","",""
"","fixation","","html-keyboard-response","178","168684","0.0-91.0-0.0","0","0","V00tD","Scenes","","null","","","","null","","","","","","","","","","","","","","","","","","","","","","","","","","","","","","","","","","","","","","","","","","","",""
"","deliberation","","html-keyboard-response","179","169130","0.0-91.0-1.0","0","0","V00tD","Scenes","","444","","","","68","","","","35","149","110","0","-1","50","50","yuriy-bogdanov-W51VK3Obcj0-unsplash.jpg","bruno-van-der-kraan-qez8mNJ3ilU-unsplash.jpg","3","1","149","110","","","","","","","","","","","","","","","","","","","","","","","","","","","",""
"","choice_confirmation","","html-keyboard-response","180","169640","0.0-91.0-2.0-0.0","0","0","V00tD","Scenes","","null","","","","null","","","","35","149","110","","","","","","","","","","","","","","","","","","","","","","","","","","","","","","","","","","","","","",""
"","reward_learning_instructions","","instructions","181","174603","0.0-92.0-0.0","0","0","V00tD","Scenes","[{""page_index"":0,""viewing_time"":3343},{""page_index"":1,""viewing_time"":866},{""page_index"":2,""viewing_time"":752}]","4961","","","","","","","","","","","","","","","","","","","","","","","","","","","","","","","","","","","","","","","","","","","","","","","",""
"","","","survey-multi-choice","182","182120","0.0-92.0-1.0","0","0","V00tD","Scenes","","7510","{""Q0"":""True"",""Q1"":""True"",""Q2"":""Press the space bar to see its outcome"",""Q3"":""Press the relevant key while the outcome is presented""}","reward_comprehension_check","0","","","","","","","","","","","","","","","","","","","","","","","","","","","","","","","","","","","","","","","","","","","","",""
"","start_phase","","html-keyboard-response","183","183158","0.0-93.0","0","0","V00tD","Scenes","","1037","","","","78","","","","","","","","","","","","","","","","","","","","","","","","","","","","","","","","","","","","","","","","","","","",""
"","fixation","","html-keyboard-response","184","184161","0.0-94.0","0","0","V00tD","Scenes","","null","","","","null","","","","","","","","","","","","","","","","","","","","","","","","","","","","","","","","","","","","","","","","","","","",""
"","see_reward","","html-keyboard-response","185","184900","0.0-95.0","0","0","V00tD","Scenes","","736","","","","32","","115","","0","","","","-1","","","","","1","","","","","0","736","","","","","","","","","","","","","","","","","","","","","","","","",""
"","reward_outcome","","html-keyboard-response","186","186906","0.0-96.0","0","0","V00tD","Scenes","","802","","","","40","","115","","0","","","","","","","","","","","","","","","","-1","802","","","","","","","","","","","","","","","","","","","","","","",""
"","fixation","","html-keyboard-response","187","187911","0.0-99.0","0","0","V00tD","Scenes","","null","","","","null","","","","","","","","","","","","","","","","","","","","","","","","","","","","","","","","","","","","","","","","","","","",""
"","see_reward","","html-keyboard-response","188","188167","0.0-100.0","0","0","V00tD","Scenes","","254","","","","32","","103","","1","","","","1","","","","","1","","","","","147","254","","","","","","","","","","","","","","","","","","","","","","","","",""
"","reward_outcome","","html-keyboard-response","189","190172","0.0-101.0","0","0","V00tD","Scenes","","71","","","","40","","103","","1","","","","","","","","","","","","","","","","-1","71","","","","","","","","","","","","","","","","","","","","","","",""
"","fixation","","html-keyboard-response","190","191179","0.0-104.0","0","0","V00tD","Scenes","","null","","","","null","","","","","","","","","","","","","","","","","","","","","","","","","","","","","","","","","","","","","","","","","","","",""
"","see_reward","","html-keyboard-response","191","191536","0.0-105.0","0","0","V00tD","Scenes","","356","","","","32","","127","","2","","","","1","","","","","1","","","","","150","356","","","","","","","","","","","","","","","","","","","","","","","","",""
"","reward_outcome","","html-keyboard-response","192","193541","0.0-106.0","0","0","V00tD","Scenes","","92","","","","40","","127","","2","","","","","","","","","","","","","","","","-1","92","","","","","","","","","","","","","","","","","","","","","","",""
"","fixation","","html-keyboard-response","193","194545","0.0-109.0","0","0","V00tD","Scenes","","null","","","","null","","","","","","","","","","","","","","","","","","","","","","","","","","","","","","","","","","","","","","","","","","","",""
"","see_reward","","html-keyboard-response","194","194874","0.0-110.0","0","0","V00tD","Scenes","","327","","","","32","","144","","3","","","","-1","","","","","1","","","","","0","327","","","","","","","","","","","","","","","","","","","","","","","","",""
"","reward_outcome","","html-keyboard-response","195","196880","0.0-111.0","0","0","V00tD","Scenes","","67","","","","40","","144","","3","","","","","","","","","","","","","","","","-1","67","","","","","","","","","","","","","","","","","","","","","","",""
"","fixation","","html-keyboard-response","196","197886","0.0-114.0","0","0","V00tD","Scenes","","null","","","","null","","","","","","","","","","","","","","","","","","","","","","","","","","","","","","","","","","","","","","","","","","","",""
"","see_reward","","html-keyboard-response","197","198031","0.0-115.0","0","0","V00tD","Scenes","","144","","","","32","","129","","4","","","","-1","","","","","1","","","","","0","144","","","","","","","","","","","","","","","","","","","","","","","","",""
"","reward_outcome","","html-keyboard-response","198","200033","0.0-116.0","0","0","V00tD","Scenes","","72","","","","40","","129","","4","","","","","","","","","","","","","","","","-1","72","","","","","","","","","","","","","","","","","","","","","","",""
"","fixation","","html-keyboard-response","199","201039","0.0-119.0","0","0","V00tD","Scenes","","null","","","","null","","","","","","","","","","","","","","","","","","","","","","","","","","","","","","","","","","","","","","","","","","","",""
"","see_reward","","html-keyboard-response","200","201316","0.0-120.0","0","0","V00tD","Scenes","","275","","","","32","","115","","5","","","","-1","","","","","1","","","","","0","275","","","","","","","","","","","","","","","","","","","","","","","","",""
"","reward_outcome","","html-keyboard-response","201","203318","0.0-121.0","0","0","V00tD","Scenes","","59","","","","40","","115","","5","","","","","","","","","","","","","","","","-1","59","","","","","","","","","","","","","","","","","","","","","","",""
"","fixation","","html-keyboard-response","202","204320","0.0-124.0","0","0","V00tD","Scenes","","null","","","","null","","","","","","","","","","","","","","","","","","","","","","","","","","","","","","","","","","","","","","","","","","","",""
"","see_reward","","html-keyboard-response","203","204949","0.0-125.0","0","0","V00tD","Scenes","","626","","","","32","","146","","6","","","","-1","","","","","1","","","","","0","626","","","","","","","","","","","","","","","","","","","","","","","","",""
"","reward_outcome","","html-keyboard-response","204","206951","0.0-126.0","0","0","V00tD","Scenes","","null","","","","null","","146","","6","","","","","","","","","","","","","","","","NaN","null","","","","","","","","","","","","","","","","","","","","","","",""
"","respond_faster","","html-keyboard-response","205","208458","0.0-127.0-0.0","1","0","V00tD","Scenes","","null","","","","null","","","","","","","","","","","","","","","","","","","","","","","","","","","","","","","","","","","","","","","","","","","",""
"","fixation","","html-keyboard-response","206","209462","0.0-129.0","0","0","V00tD","Scenes","","null","","","","null","","","","","","","","","","","","","","","","","","","","","","","","","","","","","","","","","","","","","","","","","","","",""
"","see_reward","","html-keyboard-response","207","209951","0.0-130.0","0","0","V00tD","Scenes","","489","","","","32","","117","","7","","","","1","","","","","1","","","","","159","489","","","","","","","","","","","","","","","","","","","","","","","","",""
"","reward_outcome","","html-keyboard-response","208","211957","0.0-131.0","0","0","V00tD","Scenes","","null","","","","null","","117","","7","","","","","","","","","","","","","","","","NaN","null","","","","","","","","","","","","","","","","","","","","","","",""
"","respond_faster","","html-keyboard-response","209","213461","0.0-132.0-0.0","1","0","V00tD","Scenes","","null","","","","null","","","","","","","","","","","","","","","","","","","","","","","","","","","","","","","","","","","","","","","","","","","",""
"","fixation","","html-keyboard-response","210","214467","0.0-134.0","0","0","V00tD","Scenes","","null","","","","null","","","","","","","","","","","","","","","","","","","","","","","","","","","","","","","","","","","","","","","","","","","",""
"","see_reward","","html-keyboard-response","211","215824","0.0-135.0","0","0","V00tD","Scenes","","1355","","","","32","","108","","8","","","","1","","","","","1","","","","","159","1355","","","","","","","","","","","","","","","","","","","","","","","","",""
"","reward_outcome","","html-keyboard-response","212","217829","0.0-136.0","0","0","V00tD","Scenes","","null","","","","null","","108","","8","","","","","","","","","","","","","","","","NaN","null","","","","","","","","","","","","","","","","","","","","","","",""
"","respond_faster","","html-keyboard-response","213","219334","0.0-137.0-0.0","1","0","V00tD","Scenes","","null","","","","null","","","","","","","","","","","","","","","","","","","","","","","","","","","","","","","","","","","","","","","","","","","",""
"","fixation","","html-keyboard-response","214","220339","0.0-139.0","0","0","V00tD","Scenes","","null","","","","null","","","","","","","","","","","","","","","","","","","","","","","","","","","","","","","","","","","","","","","","","","","",""
"","see_reward","","html-keyboard-response","215","220595","0.0-140.0","0","0","V00tD","Scenes","","255","","","","32","","149","","9","","","","-1","","","","","1","","","","","0","255","","","","","","","","","","","","","","","","","","","","","","","","",""
"","reward_outcome","","html-keyboard-response","216","222601","0.0-141.0","0","0","V00tD","Scenes","","null","","","","null","","149","","9","","","","","","","","","","","","","","","","NaN","null","","","","","","","","","","","","","","","","","","","","","","",""
"","respond_faster","","html-keyboard-response","217","224107","0.0-142.0-0.0","1","0","V00tD","Scenes","","null","","","","null","","","","","","","","","","","","","","","","","","","","","","","","","","","","","","","","","","","","","","","","","","","",""
"","fixation","","html-keyboard-response","218","225109","0.0-144.0","0","0","V00tD","Scenes","","null","","","","null","","","","","","","","","","","","","","","","","","","","","","","","","","","","","","","","","","","","","","","","","","","",""
"","see_reward","","html-keyboard-response","219","225649","0.0-145.0","0","0","V00tD","Scenes","","539","","","","32","","129","","10","","","","-1","","","","","1","","","","","0","539","","","","","","","","","","","","","","","","","","","","","","","","",""
"","reward_outcome","","html-keyboard-response","220","227654","0.0-146.0","0","0","V00tD","Scenes","","null","","","","null","","129","","10","","","","","","","","","","","","","","","","NaN","null","","","","","","","","","","","","","","","","","","","","","","",""
"","respond_faster","","html-keyboard-response","221","229161","0.0-147.0-0.0","1","0","V00tD","Scenes","","null","","","","null","","","","","","","","","","","","","","","","","","","","","","","","","","","","","","","","","","","","","","","","","","","",""
"","fixation","","html-keyboard-response","222","230166","0.0-149.0","0","0","V00tD","Scenes","","null","","","","null","","","","","","","","","","","","","","","","","","","","","","","","","","","","","","","","","","","","","","","","","","","",""
"","see_reward","","html-keyboard-response","223","230972","0.0-150.0","0","0","V00tD","Scenes","","804","","","","32","","127","","11","","","","1","","","","","1","","","","","150","804","","","","","","","","","","","","","","","","","","","","","","","","",""
"","reward_outcome","","html-keyboard-response","224","232978","0.0-151.0","0","0","V00tD","Scenes","","null","","","","null","","127","","11","","","","","","","","","","","","","","","","NaN","null","","","","","","","","","","","","","","","","","","","","","","",""
"","respond_faster","","html-keyboard-response","225","234484","0.0-152.0-0.0","1","0","V00tD","Scenes","","null","","","","null","","","","","","","","","","","","","","","","","","","","","","","","","","","","","","","","","","","","","","","","","","","",""
"","fixation","","html-keyboard-response","226","235490","0.0-154.0","0","0","V00tD","Scenes","","null","","","","null","","","","","","","","","","","","","","","","","","","","","","","","","","","","","","","","","","","","","","","","","","","",""
"","see_reward","","html-keyboard-response","227","235786","0.0-155.0","0","0","V00tD","Scenes","","295","","","","32","","105","","12","","","","-1","","","","","1","","","","","0","295","","","","","","","","","","","","","","","","","","","","","","","","",""
"","reward_outcome","","html-keyboard-response","228","237792","0.0-156.0","0","0","V00tD","Scenes","","null","","","","null","","105","","12","","","","","","","","","","","","","","","","NaN","null","","","","","","","","","","","","","","","","","","","","","","",""
"","respond_faster","","html-keyboard-response","229","239295","0.0-157.0-0.0","1","0","V00tD","Scenes","","null","","","","null","","","","","","","","","","","","","","","","","","","","","","","","","","","","","","","","","","","","","","","","","","","",""
"","fixation","","html-keyboard-response","230","240299","0.0-159.0","0","0","V00tD","Scenes","","null","","","","null","","","","","","","","","","","","","","","","","","","","","","","","","","","","","","","","","","","","","","","","","","","",""
"","see_reward","","html-keyboard-response","231","241257","0.0-160.0","0","0","V00tD","Scenes","","956","","","","32","","135","","13","","","","1","","","","","1","","","","","142","956","","","","","","","","","","","","","","","","","","","","","","","","",""
"","reward_outcome","","html-keyboard-response","232","243261","0.0-161.0","0","0","V00tD","Scenes","","null","","","","null","","135","","13","","","","","","","","","","","","","","","","NaN","null","","","","","","","","","","","","","","","","","","","","","","",""
"","respond_faster","","html-keyboard-response","233","244767","0.0-162.0-0.0","1","0","V00tD","Scenes","","null","","","","null","","","","","","","","","","","","","","","","","","","","","","","","","","","","","","","","","","","","","","","","","","","",""
"","fixation","","html-keyboard-response","234","245774","0.0-164.0","0","0","V00tD","Scenes","","null","","","","null","","","","","","","","","","","","","","","","","","","","","","","","","","","","","","","","","","","","","","","","","","","",""
"","see_reward","","html-keyboard-response","235","245904","0.0-165.0","0","0","V00tD","Scenes","","127","","","","32","","144","","14","","","","-1","","","","","1","","","","","0","127","","","","","","","","","","","","","","","","","","","","","","","","",""
"","reward_outcome","","html-keyboard-response","236","247906","0.0-166.0","0","0","V00tD","Scenes","","null","","","","null","","144","","14","","","","","","","","","","","","","","","","NaN","null","","","","","","","","","","","","","","","","","","","","","","",""
"","respond_faster","","html-keyboard-response","237","249411","0.0-167.0-0.0","1","0","V00tD","Scenes","","null","","","","null","","","","","","","","","","","","","","","","","","","","","","","","","","","","","","","","","","","","","","","","","","","",""
"","fixation","","html-keyboard-response","238","250416","0.0-169.0","0","0","V00tD","Scenes","","null","","","","null","","","","","","","","","","","","","","","","","","","","","","","","","","","","","","","","","","","","","","","","","","","",""
"","see_reward","","html-keyboard-response","239","251057","0.0-170.0","0","0","V00tD","Scenes","","640","","","","32","","117","","15","","","","1","","","","","1","","","","","159","640","","","","","","","","","","","","","","","","","","","","","","","","",""
"","reward_outcome","","html-keyboard-response","240","253061","0.0-171.0","0","0","V00tD","Scenes","","null","","","","null","","117","","15","","","","","","","","","","","","","","","","NaN","null","","","","","","","","","","","","","","","","","","","","","","",""
"","respond_faster","","html-keyboard-response","241","254564","0.0-172.0-0.0","1","0","V00tD","Scenes","","null","","","","null","","","","","","","","","","","","","","","","","","","","","","","","","","","","","","","","","","","","","","","","","","","",""
"","fixation","","html-keyboard-response","242","255567","0.0-174.0","0","0","V00tD","Scenes","","null","","","","null","","","","","","","","","","","","","","","","","","","","","","","","","","","","","","","","","","","","","","","","","","","",""
"","see_reward","","html-keyboard-response","243","256424","0.0-175.0","0","0","V00tD","Scenes","","855","","","","32","","130","","16","","","","1","","","","","1","","","","","158","855","","","","","","","","","","","","","","","","","","","","","","","","",""
"","reward_outcome","","html-keyboard-response","244","258430","0.0-176.0","0","0","V00tD","Scenes","","null","","","","null","","130","","16","","","","","","","","","","","","","","","","NaN","null","","","","","","","","","","","","","","","","","","","","","","",""
"","respond_faster","","html-keyboard-response","245","259932","0.0-177.0-0.0","1","0","V00tD","Scenes","","null","","","","null","","","","","","","","","","","","","","","","","","","","","","","","","","","","","","","","","","","","","","","","","","","",""
"","fixation","","html-keyboard-response","246","260935","0.0-179.0","0","0","V00tD","Scenes","","null","","","","null","","","","","","","","","","","","","","","","","","","","","","","","","","","","","","","","","","","","","","","","","","","",""
"","see_reward","","html-keyboard-response","247","261778","0.0-180.0","0","0","V00tD","Scenes","","841","","","","32","","149","","17","","","","-1","","","","","1","","","","","0","841","","","","","","","","","","","","","","","","","","","","","","","","",""
"","reward_outcome","","html-keyboard-response","248","263783","0.0-181.0","0","0","V00tD","Scenes","","null","","","","null","","149","","17","","","","","","","","","","","","","","","","NaN","null","","","","","","","","","","","","","","","","","","","","","","",""
"","respond_faster","","html-keyboard-response","249","265289","0.0-182.0-0.0","1","0","V00tD","Scenes","","null","","","","null","","","","","","","","","","","","","","","","","","","","","","","","","","","","","","","","","","","","","","","","","","","",""
"","fixation","","html-keyboard-response","250","266293","0.0-184.0","0","0","V00tD","Scenes","","null","","","","null","","","","","","","","","","","","","","","","","","","","","","","","","","","","","","","","","","","","","","","","","","","",""
"","see_reward","","html-keyboard-response","251","266823","0.0-185.0","0","0","V00tD","Scenes","","528","","","","32","","105","","18","","","","-1","","","","","1","","","","","0","528","","","","","","","","","","","","","","","","","","","","","","","","",""
"","reward_outcome","","html-keyboard-response","252","268828","0.0-186.0","0","0","V00tD","Scenes","","null","","","","null","","105","","18","","","","","","","","","","","","","","","","NaN","null","","","","","","","","","","","","","","","","","","","","","","",""
"","respond_faster","","html-keyboard-response","253","270332","0.0-187.0-0.0","1","0","V00tD","Scenes","","null","","","","null","","","","","","","","","","","","","","","","","","","","","","","","","","","","","","","","","","","","","","","","","","","",""
"","fixation","","html-keyboard-response","254","271336","0.0-189.0","0","0","V00tD","Scenes","","null","","","","null","","","","","","","","","","","","","","","","","","","","","","","","","","","","","","","","","","","","","","","","","","","",""
"","see_reward","","html-keyboard-response","255","271663","0.0-190.0","0","0","V00tD","Scenes","","325","","","","32","","130","","19","","","","1","","","","","1","","","","","158","325","","","","","","","","","","","","","","","","","","","","","","","","",""
"","reward_outcome","","html-keyboard-response","256","273667","0.0-191.0","0","0","V00tD","Scenes","","null","","","","null","","130","","19","","","","","","","","","","","","","","","","NaN","null","","","","","","","","","","","","","","","","","","","","","","",""
"","respond_faster","","html-keyboard-response","257","275174","0.0-192.0-0.0","1","0","V00tD","Scenes","","null","","","","null","","","","","","","","","","","","","","","","","","","","","","","","","","","","","","","","","","","","","","","","","","","",""
"","fixation","","html-keyboard-response","258","276178","0.0-194.0","0","0","V00tD","Scenes","","null","","","","null","","","","","","","","","","","","","","","","","","","","","","","","","","","","","","","","","","","","","","","","","","","",""
"","see_reward","","html-keyboard-response","259","277565","0.0-195.0","0","0","V00tD","Scenes","","1385","","","","32","","135","","20","","","","1","","","","","1","","","","","142","1385","","","","","","","","","","","","","","","","","","","","","","","","",""
"","reward_outcome","","html-keyboard-response","260","279569","0.0-196.0","0","0","V00tD","Scenes","","null","","","","null","","135","","20","","","","","","","","","","","","","","","","NaN","null","","","","","","","","","","","","","","","","","","","","","","",""
"","respond_faster","","html-keyboard-response","261","281075","0.0-197.0-0.0","1","0","V00tD","Scenes","","null","","","","null","","","","","","","","","","","","","","","","","","","","","","","","","","","","","","","","","","","","","","","","","","","",""
"","fixation","","html-keyboard-response","262","282078","0.0-199.0","0","0","V00tD","Scenes","","null","","","","null","","","","","","","","","","","","","","","","","","","","","","","","","","","","","","","","","","","","","","","","","","","",""
"","see_reward","","html-keyboard-response","263","283033","0.0-200.0","0","0","V00tD","Scenes","","953","","","","32","","146","","21","","","","-1","","","","","1","","","","","0","953","","","","","","","","","","","","","","","","","","","","","","","","",""
"","reward_outcome","","html-keyboard-response","264","285035","0.0-201.0","0","0","V00tD","Scenes","","null","","","","null","","146","","21","","","","","","","","","","","","","","","","NaN","null","","","","","","","","","","","","","","","","","","","","","","",""
"","respond_faster","","html-keyboard-response","265","286538","0.0-202.0-0.0","1","0","V00tD","Scenes","","null","","","","null","","","","","","","","","","","","","","","","","","","","","","","","","","","","","","","","","","","","","","","","","","","",""
"","fixation","","html-keyboard-response","266","287545","0.0-204.0","0","0","V00tD","Scenes","","null","","","","null","","","","","","","","","","","","","","","","","","","","","","","","","","","","","","","","","","","","","","","","","","","",""
"","see_reward","","html-keyboard-response","267","287774","0.0-205.0","0","0","V00tD","Scenes","","228","","","","32","","108","","22","","","","1","","","","","1","","","","","159","228","","","","","","","","","","","","","","","","","","","","","","","","",""
"","reward_outcome","","html-keyboard-response","268","289777","0.0-206.0","0","0","V00tD","Scenes","","null","","","","null","","108","","22","","","","","","","","","","","","","","","","NaN","null","","","","","","","","","","","","","","","","","","","","","","",""
"","respond_faster","","html-keyboard-response","269","291281","0.0-207.0-0.0","1","0","V00tD","Scenes","","null","","","","null","","","","","","","","","","","","","","","","","","","","","","","","","","","","","","","","","","","","","","","","","","","",""
"","fixation","","html-keyboard-response","270","292285","0.0-209.0","0","0","V00tD","Scenes","","null","","","","null","","","","","","","","","","","","","","","","","","","","","","","","","","","","","","","","","","","","","","","","","","","",""
"","see_reward","","html-keyboard-response","271","293088","0.0-210.0","0","0","V00tD","Scenes","","801","","","","32","","103","","23","","","","1","","","","","1","","","","","147","801","","","","","","","","","","","","","","","","","","","","","","","","",""
"","reward_outcome","","html-keyboard-response","272","295095","0.0-211.0","0","0","V00tD","Scenes","","null","","","","null","","103","","23","","","","","","","","","","","","","","","","NaN","null","","","","","","","","","","","","","","","","","","","","","","",""
"","respond_faster","","html-keyboard-response","273","296598","0.0-212.0-0.0","1","0","V00tD","Scenes","","null","","","","null","","","","","","","","","","","","","","","","","","","","","","","","","","","","","","","","","","","","","","","","","","","",""
"","block_over","","html-keyboard-response","274","320566","0.0-213.0-0.0","0","0","V00tD","Scenes","","23967","","","","78","","","","","","","","","","","","","","","","","","","","","","","","","","","","","","","","","","","","","","","","","","","",""
"","fixation","","html-keyboard-response","275","321569","0.0-214.0","0","0","V00tD","Scenes","","null","","","","null","","","","","","","","","","","","","","","","","","","","","","","","","","","","","","","","","","","","","","","","","","","",""
"","see_reward","","html-keyboard-response","276","323335","0.0-215.0","0","0","V00tD","Scenes","","1762","","","","32","","129","","24","","","","-1","","","","","2","","","","","0","1762","","","","","","","","","","","","","","","","","","","","","","","","",""
"","reward_outcome","","html-keyboard-response","277","325337","0.0-216.0","0","0","V00tD","Scenes","","80","","","","40","","129","","24","","","","","","","","","","","","","","","","-1","80","","","","","","","","","","","","","","","","","","","","","","",""
"","fixation","","html-keyboard-response","278","326344","0.0-219.0","0","0","V00tD","Scenes","","null","","","","null","","","","","","","","","","","","","","","","","","","","","","","","","","","","","","","","","","","","","","","","","","","",""
"","see_reward","","html-keyboard-response","279","326488","0.0-220.0","0","0","V00tD","Scenes","","142","","","","32","","146","","25","","","","-1","","","","","2","","","","","0","142","","","","","","","","","","","","","","","","","","","","","","","","",""
"","reward_outcome","","html-keyboard-response","280","328494","0.0-221.0","0","0","V00tD","Scenes","","69","","","","40","","146","","25","","","","","","","","","","","","","","","","-1","69","","","","","","","","","","","","","","","","","","","","","","",""
"","fixation","","html-keyboard-response","281","329498","0.0-224.0","0","0","V00tD","Scenes","","null","","","","null","","","","","","","","","","","","","","","","","","","","","","","","","","","","","","","","","","","","","","","","","","","",""
"","see_reward","","html-keyboard-response","282","330030","0.0-225.0","0","0","V00tD","Scenes","","530","","","","32","","108","","26","","","","1","","","","","2","","","","","159","530","","","","","","","","","","","","","","","","","","","","","","","","",""
"","reward_outcome","","html-keyboard-response","283","332036","0.0-226.0","0","0","V00tD","Scenes","","85","","","","40","","108","","26","","","","","","","","","","","","","","","","-1","85","","","","","","","","","","","","","","","","","","","","","","",""
"","fixation","","html-keyboard-response","284","333042","0.0-229.0","0","0","V00tD","Scenes","","null","","","","null","","","","","","","","","","","","","","","","","","","","","","","","","","","","","","","","","","","","","","","","","","","",""
"","see_reward","","html-keyboard-response","285","333296","0.0-230.0","0","0","V00tD","Scenes","","253","","","","32","","105","","27","","","","-1","","","","","2","","","","","0","253","","","","","","","","","","","","","","","","","","","","","","","","",""
"","reward_outcome","","html-keyboard-response","286","335302","0.0-231.0","0","0","V00tD","Scenes","","46","","","","40","","105","","27","","","","","","","","","","","","","","","","-1","46","","","","","","","","","","","","","","","","","","","","","","",""
"","fixation","","html-keyboard-response","287","336308","0.0-234.0","0","0","V00tD","Scenes","","null","","","","null","","","","","","","","","","","","","","","","","","","","","","","","","","","","","","","","","","","","","","","","","","","",""
"","see_reward","","html-keyboard-response","288","336767","0.0-235.0","0","0","V00tD","Scenes","","457","","","","32","","149","","28","","","","-1","","","","","2","","","","","0","457","","","","","","","","","","","","","","","","","","","","","","","","",""
"","reward_outcome","","html-keyboard-response","289","338772","0.0-236.0","0","0","V00tD","Scenes","","34","","","","40","","149","","28","","","","","","","","","","","","","","","","-1","34","","","","","","","","","","","","","","","","","","","","","","",""
"","fixation","","html-keyboard-response","290","339778","0.0-239.0","0","0","V00tD","Scenes","","null","","","","null","","","","","","","","","","","","","","","","","","","","","","","","","","","","","","","","","","","","","","","","","","","",""
"","see_reward","","html-keyboard-response","291","340214","0.0-240.0","0","0","V00tD","Scenes","","434","","","","32","","103","","29","","","","1","","","","","2","","","","","147","434","","","","","","","","","","","","","","","","","","","","","","","","",""
"","reward_outcome","","html-keyboard-response","292","342218","0.0-241.0","0","0","V00tD","Scenes","","59","","","","40","","103","","29","","","","","","","","","","","","","","","","-1","59","","","","","","","","","","","","","","","","","","","","","","",""
"","fixation","","html-keyboard-response","293","343222","0.0-244.0","0","0","V00tD","Scenes","","null","","","","null","","","","","","","","","","","","","","","","","","","","","","","","","","","","","","","","","","","","","","","","","","","",""
"","see_reward","","html-keyboard-response","294","343811","0.0-245.0","0","0","V00tD","Scenes","","588","","","","32","","130","","30","","","","1","","","","","2","","","","","158","588","","","","","","","","","","","","","","","","","","","","","","","","",""
"","reward_outcome","","html-keyboard-response","295","345818","0.0-246.0","0","0","V00tD","Scenes","","15","","","","40","","130","","30","","","","","","","","","","","","","","","","-1","15","","","","","","","","","","","","","","","","","","","","","","",""
"","fixation","","html-keyboard-response","296","346825","0.0-249.0","0","0","V00tD","Scenes","","null","","","","null","","","","","","","","","","","","","","","","","","","","","","","","","","","","","","","","","","","","","","","","","","","",""
"","see_reward","","html-keyboard-response","297","347294","0.0-250.0","0","0","V00tD","Scenes","","465","","","","32","","105","","31","","","","-1","","","","","2","","","","","0","465","","","","","","","","","","","","","","","","","","","","","","","","",""
"","reward_outcome","","html-keyboard-response","298","349301","0.0-251.0","0","0","V00tD","Scenes","","52","","","","40","","105","","31","","","","","","","","","","","","","","","","-1","52","","","","","","","","","","","","","","","","","","","","","","",""
"","fixation","","html-keyboard-response","299","350303","0.0-254.0","0","0","V00tD","Scenes","","null","","","","null","","","","","","","","","","","","","","","","","","","","","","","","","","","","","","","","","","","","","","","","","","","",""
"","see_reward","","html-keyboard-response","300","351888","0.0-255.0","0","0","V00tD","Scenes","","1583","","","","32","","135","","32","","","","1","","","","","2","","","","","142","1583","","","","","","","","","","","","","","","","","","","","","","","","",""
"","reward_outcome","","html-keyboard-response","301","353894","0.0-256.0","0","0","V00tD","Scenes","","57","","","","40","","135","","32","","","","","","","","","","","","","","","","-1","57","","","","","","","","","","","","","","","","","","","","","","",""
"","fixation","","html-keyboard-response","302","354900","0.0-259.0","0","0","V00tD","Scenes","","null","","","","null","","","","","","","","","","","","","","","","","","","","","","","","","","","","","","","","","","","","","","","","","","","",""
"","see_reward","","html-keyboard-response","303","355183","0.0-260.0","0","0","V00tD","Scenes","","282","","","","32","","149","","33","","","","-1","","","","","2","","","","","0","282","","","","","","","","","","","","","","","","","","","","","","","","",""
"","reward_outcome","","html-keyboard-response","304","357190","0.0-261.0","0","0","V00tD","Scenes","","34","","","","40","","149","","33","","","","","","","","","","","","","","","","-1","34","","","","","","","","","","","","","","","","","","","","","","",""
"","fixation","","html-keyboard-response","305","358194","0.0-264.0","0","0","V00tD","Scenes","","null","","","","null","","","","","","","","","","","","","","","","","","","","","","","","","","","","","","","","","","","","","","","","","","","",""
"","see_reward","","html-keyboard-response","306","358528","0.0-265.0","0","0","V00tD","Scenes","","331","","","","32","","144","","34","","","","-1","","","","","2","","","","","0","331","","","","","","","","","","","","","","","","","","","","","","","","",""
"","reward_outcome","","html-keyboard-response","307","360532","0.0-266.0","0","0","V00tD","Scenes","","35","","","","40","","144","","34","","","","","","","","","","","","","","","","-1","35","","","","","","","","","","","","","","","","","","","","","","",""
"","fixation","","html-keyboard-response","308","361537","0.0-269.0","0","0","V00tD","Scenes","","null","","","","null","","","","","","","","","","","","","","","","","","","","","","","","","","","","","","","","","","","","","","","","","","","",""
"","see_reward","","html-keyboard-response","309","361971","0.0-270.0","0","0","V00tD","Scenes","","433","","","","32","","127","","35","","","","1","","","","","2","","","","","150","433","","","","","","","","","","","","","","","","","","","","","","","","",""
"","reward_outcome","","html-keyboard-response","310","363978","0.0-271.0","0","0","V00tD","Scenes","","33","","","","40","","127","","35","","","","","","","","","","","","","","","","-1","33","","","","","","","","","","","","","","","","","","","","","","",""
"","fixation","","html-keyboard-response","311","364982","0.0-274.0","0","0","V00tD","Scenes","","null","","","","null","","","","","","","","","","","","","","","","","","","","","","","","","","","","","","","","","","","","","","","","","","","",""
"","see_reward","","html-keyboard-response","312","365672","0.0-275.0","0","0","V00tD","Scenes","","689","","","","32","","115","","36","","","","-1","","","","","2","","","","","0","689","","","","","","","","","","","","","","","","","","","","","","","","",""
"","reward_outcome","","html-keyboard-response","313","367677","0.0-276.0","0","0","V00tD","Scenes","","16","","","","40","","115","","36","","","","","","","","","","","","","","","","-1","16","","","","","","","","","","","","","","","","","","","","","","",""
"","fixation","","html-keyboard-response","314","368680","0.0-279.0","0","0","V00tD","Scenes","","null","","","","null","","","","","","","","","","","","","","","","","","","","","","","","","","","","","","","","","","","","","","","","","","","",""
"","see_reward","","html-keyboard-response","315","510024","0.0-280.0","0","0","V00tD","Scenes","","141342","","","","32","","144","","37","","","","-1","","","","","2","","","","","0","141342","","","","","","","","","","","","","","","","","","","","","","","","",""
"","reward_outcome","","html-keyboard-response","316","512029","0.0-281.0","0","0","V00tD","Scenes","","164","","","","38","","144","","37","","","","","","","","","","","","","","","","1","164","","","","","","","","","","","","","","","","","","","","","","",""
"","fixation","","html-keyboard-response","317","513035","0.0-284.0","0","0","V00tD","Scenes","","null","","","","null","","","","","","","","","","","","","","","","","","","","","","","","","","","","","","","","","","","","","","","","","","","",""
"","see_reward","","html-keyboard-response","318","513618","0.0-285.0","0","0","V00tD","Scenes","","581","","","","32","","108","","38","","","","1","","","","","2","","","","","159","581","","","","","","","","","","","","","","","","","","","","","","","","",""
"","reward_outcome","","html-keyboard-response","319","515621","0.0-286.0","0","0","V00tD","Scenes","","51","","","","40","","108","","38","","","","","","","","","","","","","","","","-1","51","","","","","","","","","","","","","","","","","","","","","","",""
"","fixation","","html-keyboard-response","320","516629","0.0-289.0","0","0","V00tD","Scenes","","null","","","","null","","","","","","","","","","","","","","","","","","","","","","","","","","","","","","","","","","","","","","","","","","","",""
"","see_reward","","html-keyboard-response","321","516697","0.0-290.0","0","0","V00tD","Scenes","","66","","","","32","","135","","39","","","","1","","","","","2","","","","","142","66","","","","","","","","","","","","","","","","","","","","","","","","",""
"","reward_outcome","","html-keyboard-response","322","518706","0.0-291.0","0","0","V00tD","Scenes","","44","","","","40","","135","","39","","","","","","","","","","","","","","","","-1","44","","","","","","","","","","","","","","","","","","","","","","",""
"","fixation","","html-keyboard-response","323","519714","0.0-294.0","0","0","V00tD","Scenes","","null","","","","null","","","","","","","","","","","","","","","","","","","","","","","","","","","","","","","","","","","","","","","","","","","",""
"","see_reward","","html-keyboard-response","324","520160","0.0-295.0","0","0","V00tD","Scenes","","445","","","","32","","103","","40","","","","1","","","","","2","","","","","147","445","","","","","","","","","","","","","","","","","","","","","","","","",""
"","reward_outcome","","html-keyboard-response","325","522166","0.0-296.0","0","0","V00tD","Scenes","","55","","","","40","","103","","40","","","","","","","","","","","","","","","","-1","55","","","","","","","","","","","","","","","","","","","","","","",""
"","fixation","","html-keyboard-response","326","523173","0.0-299.0","0","0","V00tD","Scenes","","null","","","","null","","","","","","","","","","","","","","","","","","","","","","","","","","","","","","","","","","","","","","","","","","","",""
"","see_reward","","html-keyboard-response","327","523756","0.0-300.0","0","0","V00tD","Scenes","","581","","","","32","","129","","41","","","","-1","","","","","2","","","","","0","581","","","","","","","","","","","","","","","","","","","","","","","","",""
"","reward_outcome","","html-keyboard-response","328","525762","0.0-301.0","0","0","V00tD","Scenes","","49","","","","40","","129","","41","","","","","","","","","","","","","","","","-1","49","","","","","","","","","","","","","","","","","","","","","","",""
"","fixation","","html-keyboard-response","329","526779","0.0-304.0","0","0","V00tD","Scenes","","null","","","","null","","","","","","","","","","","","","","","","","","","","","","","","","","","","","","","","","","","","","","","","","","","",""
"","see_reward","","html-keyboard-response","330","527424","0.0-305.0","0","0","V00tD","Scenes","","644","","","","32","","146","","42","","","","-1","","","","","2","","","","","0","644","","","","","","","","","","","","","","","","","","","","","","","","",""
"","reward_outcome","","html-keyboard-response","331","529431","0.0-306.0","0","0","V00tD","Scenes","","32","","","","40","","146","","42","","","","","","","","","","","","","","","","-1","32","","","","","","","","","","","","","","","","","","","","","","",""
"","fixation","","html-keyboard-response","332","530438","0.0-309.0","0","0","V00tD","Scenes","","null","","","","null","","","","","","","","","","","","","","","","","","","","","","","","","","","","","","","","","","","","","","","","","","","",""
"","see_reward","","html-keyboard-response","333","530512","0.0-310.0","0","0","V00tD","Scenes","","72","","","","32","","115","","43","","","","-1","","","","","2","","","","","0","72","","","","","","","","","","","","","","","","","","","","","","","","",""
"","reward_outcome","","html-keyboard-response","334","532515","0.0-311.0","0","0","V00tD","Scenes","","40","","","","40","","115","","43","","","","","","","","","","","","","","","","-1","40","","","","","","","","","","","","","","","","","","","","","","",""
"","fixation","","html-keyboard-response","335","533524","0.0-314.0","0","0","V00tD","Scenes","","null","","","","null","","","","","","","","","","","","","","","","","","","","","","","","","","","","","","","","","","","","","","","","","","","",""
"","see_reward","","html-keyboard-response","336","533593","0.0-315.0","0","0","V00tD","Scenes","","68","","","","32","","117","","44","","","","1","","","","","2","","","","","159","68","","","","","","","","","","","","","","","","","","","","","","","","",""
"","reward_outcome","","html-keyboard-response","337","535600","0.0-316.0","0","0","V00tD","Scenes","","28","","","","40","","117","","44","","","","","","","","","","","","","","","","-1","28","","","","","","","","","","","","","","","","","","","","","","",""
"","fixation","","html-keyboard-response","338","536608","0.0-319.0","0","0","V00tD","Scenes","","null","","","","null","","","","","","","","","","","","","","","","","","","","","","","","","","","","","","","","","","","","","","","","","","","",""
"","see_reward","","html-keyboard-response","339","537016","0.0-320.0","0","0","V00tD","Scenes","","407","","","","32","","127","","45","","","","1","","","","","2","","","","","150","407","","","","","","","","","","","","","","","","","","","","","","","","",""
"","reward_outcome","","html-keyboard-response","340","539024","0.0-321.0","0","0","V00tD","Scenes","","44","","","","40","","127","","45","","","","","","","","","","","","","","","","-1","44","","","","","","","","","","","","","","","","","","","","","","",""
"","fixation","","html-keyboard-response","341","540027","0.0-324.0","0","0","V00tD","Scenes","","null","","","","null","","","","","","","","","","","","","","","","","","","","","","","","","","","","","","","","","","","","","","","","","","","",""
"","see_reward","","html-keyboard-response","342","540510","0.0-325.0","0","0","V00tD","Scenes","","481","","","","32","","117","","46","","","","1","","","","","2","","","","","159","481","","","","","","","","","","","","","","","","","","","","","","","","",""
"","reward_outcome","","html-keyboard-response","343","542515","0.0-326.0","0","0","V00tD","Scenes","","47","","","","40","","117","","46","","","","","","","","","","","","","","","","-1","47","","","","","","","","","","","","","","","","","","","","","","",""
"","fixation","","html-keyboard-response","344","543521","0.0-329.0","0","0","V00tD","Scenes","","null","","","","null","","","","","","","","","","","","","","","","","","","","","","","","","","","","","","","","","","","","","","","","","","","",""
"","see_reward","","html-keyboard-response","345","543621","0.0-330.0","0","0","V00tD","Scenes","","98","","","","32","","130","","47","","","","1","","","","","2","","","","","158","98","","","","","","","","","","","","","","","","","","","","","","","","",""
"","reward_outcome","","html-keyboard-response","346","545628","0.0-331.0","0","0","V00tD","Scenes","","79","","","","40","","130","","47","","","","","","","","","","","","","","","","-1","79","","","","","","","","","","","","","","","","","","","","","","",""
"","block_over","","html-keyboard-response","347","552749","0.0-333.0-0.0","0","0","V00tD","Scenes","","7120","","","","78","","","","","","","","","","","","","","","","","","","","","","","","","","","","","","","","","","","","","","","","","","","",""
"","fixation","","html-keyboard-response","348","553752","0.0-334.0","0","0","V00tD","Scenes","","null","","","","null","","","","","","","","","","","","","","","","","","","","","","","","","","","","","","","","","","","","","","","","","","","",""
"","see_reward","","html-keyboard-response","349","580989","0.0-335.0","0","0","V00tD","Scenes","","27234","","","","32","","117","","48","","","","1","","","","","3","","","","","159","27234","","","","","","","","","","","","","","","","","","","","","","","","",""
"","reward_outcome","","html-keyboard-response","350","582991","0.0-336.0","0","0","V00tD","Scenes","","47","","","","40","","117","","48","","","","","","","","","","","","","","","","-1","47","","","","","","","","","","","","","","","","","","","","","","",""
"","fixation","","html-keyboard-response","351","583997","0.0-339.0","0","0","V00tD","Scenes","","null","","","","null","","","","","","","","","","","","","","","","","","","","","","","","","","","","","","","","","","","","","","","","","","","",""
"","see_reward","","html-keyboard-response","352","584319","0.0-340.0","0","0","V00tD","Scenes","","320","","","","32","","103","","49","","","","1","","","","","3","","","","","147","320","","","","","","","","","","","","","","","","","","","","","","","","",""
"","reward_outcome","","html-keyboard-response","353","586325","0.0-341.0","0","0","V00tD","Scenes","","27","","","","40","","103","","49","","","","","","","","","","","","","","","","-1","27","","","","","","","","","","","","","","","","","","","","","","",""
"","fixation","","html-keyboard-response","354","587329","0.0-344.0","0","0","V00tD","Scenes","","null","","","","null","","","","","","","","","","","","","","","","","","","","","","","","","","","","","","","","","","","","","","","","","","","",""
"","see_reward","","html-keyboard-response","355","587649","0.0-345.0","0","0","V00tD","Scenes","","318","","","","32","","149","","50","","","","-1","","","","","3","","","","","0","318","","","","","","","","","","","","","","","","","","","","","","","","",""
