"success","trial_type","trial_index","time_elapsed","internal_node_id","subject","condition","view_history","rt","initial_locations","moves","final_locations_3","number_of_moves","responses"
"true","fullscreen","0","3913","0.0-0.0","66D67B76D5F8499B93188B4EDE1FB69F","conditionB","","","","","","",""
"","instructions","1","54388","0.0-1.0","66D67B76D5F8499B93188B4EDE1FB69F","conditionB","[{""page_index"":0,""viewing_time"":2291.5},{""page_index"":1,""viewing_time"":22521.10000000149},{""page_index"":2,""viewing_time"":4434.70000000298},{""page_index"":3,""viewing_time"":19798.39999999851},{""page_index"":4,""viewing_time"":1427.3999999985099}]","50473.60000000149","","","","",""
"","order","2","118784","0.0-2.0","66D67B76D5F8499B93188B4EDE1FB69F","conditionB","","64394","[""instructions/movie_4"",""instructions/movie_3"",""instructions/movie_2"",""instructions/movie_1"",""blank"",""blank"",""blank"",""blank"",""blank"",""blank""]","[{""src"":""https://test12345.live/images/instructions/movie_1.png"",""x"":384,""y"":577,""move_time"":37635},{""src"":""https://test12345.live/images/instructions/movie_2.png"",""x"":611,""y"":577,""move_time"":8178},{""src"":""https://test12345.live/images/instructions/movie_3.png"",""x"":837,""y"":577,""move_time"":7351},{""src"":""https://test12345.live/images/instructions/movie_4.png"",""x"":1064,""y"":577,""move_time"":8551}]","[{""src"":""https://test12345.live/images/instructions/movie_1.png"",""x"":384,""y"":577},{""src"":""https://test12345.live/images/blank6.jpg"",""x"":384,""y"":804},{""src"":""https://test12345.live/images/instructions/movie_2.png"",""x"":611,""y"":577},{""src"":""https://test12345.live/images/blank7.jpg"",""x"":611,""y"":804},{""src"":""https://test12345.live/images/instructions/movie_3.png"",""x"":837,""y"":577},{""src"":""https://test12345.live/images/blank8.jpg"",""x"":837,""y"":804},{""src"":""https://test12345.live/images/instructions/movie_4.png"",""x"":1064,""y"":577},{""src"":""https://test12345.live/images/blank9.jpg"",""x"":1064,""y"":804},{""src"":""https://test12345.live/images/blank5.jpg"",""x"":1291,""y"":577},{""src"":""https://test12345.live/images/blank10.jpg"",""x"":1291,""y"":804}]","4",""
"","instructions","3","122550","0.0-3.0","66D67B76D5F8499B93188B4EDE1FB69F","conditionB","[{""page_index"":0,""viewing_time"":3765.3000000044703}]","3765.60000000149","","","","",""
"","order","4","320848","0.0-4.0","66D67B76D5F8499B93188B4EDE1FB69F","conditionB","","198297","[""causal_sequence/coin_causal/coin_causal_4"",""causal_sequence/coin_causal/coin_causal_3"",""causal_sequence/coin_causal/coin_causal_ten"",""causal_sequence/coin_causal/coin_causal_5"",""causal_sequence/coin_causal/coin_causal_6"",""causal_sequence/coin_causal/coin_causal_7"",""causal_sequence/coin_causal/coin_causal_2"",""causal_sequence/coin_causal/coin_causal_9"",""causal_sequence/coin_causal/coin_causal_8"",""causal_sequence/coin_causal/coin_causal_1""]","[{""src"":""https://test12345.live/images/causal_sequence/coin_causal/coin_causal_9.png"",""x"":384,""y"":577,""move_time"":29866},{""src"":""https://test12345.live/images/causal_sequence/coin_causal/coin_causal_1.png"",""x"":837,""y"":577,""move_time"":5520},{""src"":""https://test12345.live/images/causal_sequence/coin_causal/coin_causal_1.png"",""x"":611,""y"":577,""move_time"":3197},{""src"":""https://test12345.live/images/causal_sequence/coin_causal/coin_causal_2.png"",""x"":837,""y"":577,""move_time"":6518},{""src"":""https://test12345.live/images/causal_sequence/coin_causal/coin_causal_3.png"",""x"":1064,""y"":577,""move_time"":12080},{""src"":""https://test12345.live/images/causal_sequence/coin_causal/coin_causal_4.png"",""x"":1064,""y"":305,""move_time"":11484},{""src"":""https://test12345.live/images/causal_sequence/coin_causal/coin_causal_8.png"",""x"":1291,""y"":577,""move_time"":12096},{""src"":""https://test12345.live/images/causal_sequence/coin_causal/coin_causal_8.png"",""x"":1291,""y"":577,""move_time"":20214},{""src"":""https://test12345.live/images/causal_sequence/coin_causal/coin_causal_8.png"",""x"":611,""y"":804,""move_time"":10135},{""src"":""https://test12345.live/images/causal_sequence/coin_causal/coin_causal_4.png"",""x"":1291,""y"":577,""move_time"":40969},{""src"":""https://test12345.live/images/causal_sequence/coin_causal/coin_causal_5.png"",""x"":384,""y"":804,""move_time"":11875},{""src"":""https://test12345.live/images/causal_sequence/coin_causal/coin_causal_8.png"",""x"":837,""y"":804,""move_time"":4096},{""src"":""https://test12345.live/images/causal_sequence/coin_causal/coin_causal_6.png"",""x"":611,""y"":804,""move_time"":7932},{""src"":""https://test12345.live/images/causal_sequence/coin_causal/coin_causal_8.png"",""x"":1064,""y"":804,""move_time"":6451},{""src"":""https://test12345.live/images/causal_sequence/coin_causal/coin_causal_7.png"",""x"":837,""y"":804,""move_time"":4830},{""src"":""https://test12345.live/images/causal_sequence/coin_causal/coin_causal_ten.png"",""x"":1291,""y"":804,""move_time"":9767}]","[{""src"":""https://test12345.live/images/causal_sequence/coin_causal/coin_causal_9.png"",""x"":384,""y"":577},{""src"":""https://test12345.live/images/causal_sequence/coin_causal/coin_causal_5.png"",""x"":384,""y"":804},{""src"":""https://test12345.live/images/causal_sequence/coin_causal/coin_causal_1.png"",""x"":611,""y"":577},{""src"":""https://test12345.live/images/causal_sequence/coin_causal/coin_causal_6.png"",""x"":611,""y"":804},{""src"":""https://test12345.live/images/causal_sequence/coin_causal/coin_causal_2.png"",""x"":837,""y"":577},{""src"":""https://test12345.live/images/causal_sequence/coin_causal/coin_causal_7.png"",""x"":837,""y"":804},{""src"":""https://test12345.live/images/causal_sequence/coin_causal/coin_causal_3.png"",""x"":1064,""y"":577},{""src"":""https://test12345.live/images/causal_sequence/coin_causal/coin_causal_8.png"",""x"":1064,""y"":804},{""src"":""https://test12345.live/images/causal_sequence/coin_causal/coin_causal_4.png"",""x"":1291,""y"":577},{""src"":""https://test12345.live/images/causal_sequence/coin_causal/coin_causal_ten.png"",""x"":1291,""y"":804}]","16",""
"","order","5","424518","0.0-5.0","66D67B76D5F8499B93188B4EDE1FB69F","conditionB","","103669","[""semantic_sequence/physical_activity_semantic/physical_activity_semantic_8"",""semantic_sequence/physical_activity_semantic/physical_activity_semantic_5"",""semantic_sequence/physical_activity_semantic/physical_activity_semantic_7"",""semantic_sequence/physical_activity_semantic/physical_activity_semantic_3"",""semantic_sequence/physical_activity_semantic/physical_activity_semantic_6"",""semantic_sequence/physical_activity_semantic/physical_activity_semantic_2"",""semantic_sequence/physical_activity_semantic/physical_activity_semantic_1"",""semantic_sequence/physical_activity_semantic/physical_activity_semantic_9"",""semantic_sequence/physical_activity_semantic/physical_activity_semantic_4"",""semantic_sequence/physical_activity_semantic/physical_activity_semantic_ten""]","[{""src"":""https://test12345.live/images/semantic_sequence/physical_activity_semantic/physical_activity_semantic_1.png"",""x"":384,""y"":577,""move_time"":45782},{""src"":""https://test12345.live/images/semantic_sequence/physical_activity_semantic/physical_activity_semantic_2.png"",""x"":611,""y"":577,""move_time"":3149},{""src"":""https://test12345.live/images/semantic_sequence/physical_activity_semantic/physical_activity_semantic_3.png"",""x"":837,""y"":577,""move_time"":5500},{""src"":""https://test12345.live/images/semantic_sequence/physical_activity_semantic/physical_activity_semantic_4.png"",""x"":1064,""y"":577,""move_time"":5870},{""src"":""https://test12345.live/images/semantic_sequence/physical_activity_semantic/physical_activity_semantic_5.png"",""x"":1291,""y"":577,""move_time"":6074},{""src"":""https://test12345.live/images/semantic_sequence/physical_activity_semantic/physical_activity_semantic_6.png"",""x"":384,""y"":804,""move_time"":7812},{""src"":""https://test12345.live/images/semantic_sequence/physical_activity_semantic/physical_activity_semantic_7.png"",""x"":611,""y"":804,""move_time"":6545},{""src"":""https://test12345.live/images/semantic_sequence/physical_activity_semantic/physical_activity_semantic_8.png"",""x"":837,""y"":804,""move_time"":12127},{""src"":""https://test12345.live/images/semantic_sequence/physical_activity_semantic/physical_activity_semantic_9.png"",""x"":1064,""y"":804,""move_time"":4909},{""src"":""https://test12345.live/images/semantic_sequence/physical_activity_semantic/physical_activity_semantic_ten.png"",""x"":1291,""y"":804,""move_time"":4446}]","[{""src"":""https://test12345.live/images/semantic_sequence/physical_activity_semantic/physical_activity_semantic_1.png"",""x"":384,""y"":577},{""src"":""https://test12345.live/images/semantic_sequence/physical_activity_semantic/physical_activity_semantic_6.png"",""x"":384,""y"":804},{""src"":""https://test12345.live/images/semantic_sequence/physical_activity_semantic/physical_activity_semantic_2.png"",""x"":611,""y"":577},{""src"":""https://test12345.live/images/semantic_sequence/physical_activity_semantic/physical_activity_semantic_7.png"",""x"":611,""y"":804},{""src"":""https://test12345.live/images/semantic_sequence/physical_activity_semantic/physical_activity_semantic_3.png"",""x"":837,""y"":577},{""src"":""https://test12345.live/images/semantic_sequence/physical_activity_semantic/physical_activity_semantic_8.png"",""x"":837,""y"":804},{""src"":""https://test12345.live/images/semantic_sequence/physical_activity_semantic/physical_activity_semantic_4.png"",""x"":1064,""y"":577},{""src"":""https://test12345.live/images/semantic_sequence/physical_activity_semantic/physical_activity_semantic_9.png"",""x"":1064,""y"":804},{""src"":""https://test12345.live/images/semantic_sequence/physical_activity_semantic/physical_activity_semantic_5.png"",""x"":1291,""y"":577},{""src"":""https://test12345.live/images/semantic_sequence/physical_activity_semantic/physical_activity_semantic_ten.png"",""x"":1291,""y"":804}]","10",""
"","order","6","496748","0.0-6.0","66D67B76D5F8499B93188B4EDE1FB69F","conditionB","","72228","[""semantic_sequence/creative_activities_semantic/creative_activities_semantic_4"",""semantic_sequence/creative_activities_semantic/creative_activities_semantic_3"",""semantic_sequence/creative_activities_semantic/creative_activities_semantic_ten"",""semantic_sequence/creative_activities_semantic/creative_activities_semantic_6"",""semantic_sequence/creative_activities_semantic/creative_activities_semantic_5"",""semantic_sequence/creative_activities_semantic/creative_activities_semantic_9"",""semantic_sequence/creative_activities_semantic/creative_activities_semantic_1"",""semantic_sequence/creative_activities_semantic/creative_activities_semantic_7"",""semantic_sequence/creative_activities_semantic/creative_activities_semantic_8"",""semantic_sequence/creative_activities_semantic/creative_activities_semantic_2""]","[{""src"":""https://test12345.live/images/semantic_sequence/creative_activities_semantic/creative_activities_semantic_1.png"",""x"":384,""y"":577,""move_time"":13951},{""src"":""https://test12345.live/images/semantic_sequence/creative_activities_semantic/creative_activities_semantic_2.png"",""x"":611,""y"":577,""move_time"":7118},{""src"":""https://test12345.live/images/semantic_sequence/creative_activities_semantic/creative_activities_semantic_3.png"",""x"":837,""y"":577,""move_time"":5282},{""src"":""https://test12345.live/images/semantic_sequence/creative_activities_semantic/creative_activities_semantic_4.png"",""x"":1064,""y"":577,""move_time"":9272},{""src"":""https://test12345.live/images/semantic_sequence/creative_activities_semantic/creative_activities_semantic_5.png"",""x"":1291,""y"":577,""move_time"":7917},{""src"":""https://test12345.live/images/semantic_sequence/creative_activities_semantic/creative_activities_semantic_6.png"",""x"":384,""y"":804,""move_time"":5397},{""src"":""https://test12345.live/images/semantic_sequence/creative_activities_semantic/creative_activities_semantic_7.png"",""x"":611,""y"":804,""move_time"":6029},{""src"":""https://test12345.live/images/semantic_sequence/creative_activities_semantic/creative_activities_semantic_8.png"",""x"":837,""y"":804,""move_time"":4228},{""src"":""https://test12345.live/images/semantic_sequence/creative_activities_semantic/creative_activities_semantic_9.png"",""x"":1064,""y"":804,""move_time"":6004},{""src"":""https://test12345.live/images/semantic_sequence/creative_activities_semantic/creative_activities_semantic_ten.png"",""x"":1291,""y"":804,""move_time"":5286}]","[{""src"":""https://test12345.live/images/semantic_sequence/creative_activities_semantic/creative_activities_semantic_1.png"",""x"":384,""y"":577},{""src"":""https://test12345.live/images/semantic_sequence/creative_activities_semantic/creative_activities_semantic_6.png"",""x"":384,""y"":804},{""src"":""https://test12345.live/images/semantic_sequence/creative_activities_semantic/creative_activities_semantic_2.png"",""x"":611,""y"":577},{""src"":""https://test12345.live/images/semantic_sequence/creative_activities_semantic/creative_activities_semantic_7.png"",""x"":611,""y"":804},{""src"":""https://test12345.live/images/semantic_sequence/creative_activities_semantic/creative_activities_semantic_3.png"",""x"":837,""y"":577},{""src"":""https://test12345.live/images/semantic_sequence/creative_activities_semantic/creative_activities_semantic_8.png"",""x"":837,""y"":804},{""src"":""https://test12345.live/images/semantic_sequence/creative_activities_semantic/creative_activities_semantic_4.png"",""x"":1064,""y"":577},{""src"":""https://test12345.live/images/semantic_sequence/creative_activities_semantic/creative_activities_semantic_9.png"",""x"":1064,""y"":804},{""src"":""https://test12345.live/images/semantic_sequence/creative_activities_semantic/creative_activities_semantic_5.png"",""x"":1291,""y"":577},{""src"":""https://test12345.live/images/semantic_sequence/creative_activities_semantic/creative_activities_semantic_ten.png"",""x"":1291,""y"":804}]","10",""
"","order","7","563809","0.0-7.0","66D67B76D5F8499B93188B4EDE1FB69F","conditionB","","67061","[""semantic_sequence/kitchen_operations_semantic/kitchen_operations_semantic_9"",""semantic_sequence/kitchen_operations_semantic/kitchen_operations_semantic_2"",""semantic_sequence/kitchen_operations_semantic/kitchen_operations_semantic_1"",""semantic_sequence/kitchen_operations_semantic/kitchen_operations_semantic_6"",""semantic_sequence/kitchen_operations_semantic/kitchen_operations_semantic_4"",""semantic_sequence/kitchen_operations_semantic/kitchen_operations_semantic_ten"",""semantic_sequence/kitchen_operations_semantic/kitchen_operations_semantic_8"",""semantic_sequence/kitchen_operations_semantic/kitchen_operations_semantic_3"",""semantic_sequence/kitchen_operations_semantic/kitchen_operations_semantic_5"",""semantic_sequence/kitchen_operations_semantic/kitchen_operations_semantic_7""]","[{""src"":""https://test12345.live/images/semantic_sequence/kitchen_operations_semantic/kitchen_operations_semantic_1.png"",""x"":384,""y"":577,""move_time"":18066},{""src"":""https://test12345.live/images/semantic_sequence/kitchen_operations_semantic/kitchen_operations_semantic_2.png"",""x"":611,""y"":577,""move_time"":4054},{""src"":""https://test12345.live/images/semantic_sequence/kitchen_operations_semantic/kitchen_operations_semantic_3.png"",""x"":837,""y"":577,""move_time"":5411},{""src"":""https://test12345.live/images/semantic_sequence/kitchen_operations_semantic/kitchen_operations_semantic_4.png"",""x"":1064,""y"":577,""move_time"":5076},{""src"":""https://test12345.live/images/semantic_sequence/kitchen_operations_semantic/kitchen_operations_semantic_5.png"",""x"":1291,""y"":577,""move_time"":4391},{""src"":""https://test12345.live/images/semantic_sequence/kitchen_operations_semantic/kitchen_operations_semantic_6.png"",""x"":384,""y"":804,""move_time"":5092},{""src"":""https://test12345.live/images/semantic_sequence/kitchen_operations_semantic/kitchen_operations_semantic_7.png"",""x"":611,""y"":804,""move_time"":7039},{""src"":""https://test12345.live/images/semantic_sequence/kitchen_operations_semantic/kitchen_operations_semantic_8.png"",""x"":837,""y"":804,""move_time"":4479},{""src"":""https://test12345.live/images/semantic_sequence/kitchen_operations_semantic/kitchen_operations_semantic_9.png"",""x"":1064,""y"":804,""move_time"":5586},{""src"":""https://test12345.live/images/semantic_sequence/kitchen_operations_semantic/kitchen_operations_semantic_ten.png"",""x"":1291,""y"":804,""move_time"":5614}]","[{""src"":""https://test12345.live/images/semantic_sequence/kitchen_operations_semantic/kitchen_operations_semantic_1.png"",""x"":384,""y"":577},{""src"":""https://test12345.live/images/semantic_sequence/kitchen_operations_semantic/kitchen_operations_semantic_6.png"",""x"":384,""y"":804},{""src"":""https://test12345.live/images/semantic_sequence/kitchen_operations_semantic/kitchen_operations_semantic_2.png"",""x"":611,""y"":577},{""src"":""https://test12345.live/images/semantic_sequence/kitchen_operations_semantic/kitchen_operations_semantic_7.png"",""x"":611,""y"":804},{""src"":""https://test12345.live/images/semantic_sequence/kitchen_operations_semantic/kitchen_operations_semantic_3.png"",""x"":837,""y"":577},{""src"":""https://test12345.live/images/semantic_sequence/kitchen_operations_semantic/kitchen_operations_semantic_8.png"",""x"":837,""y"":804},{""src"":""https://test12345.live/images/semantic_sequence/kitchen_operations_semantic/kitchen_operations_semantic_4.png"",""x"":1064,""y"":577},{""src"":""https://test12345.live/images/semantic_sequence/kitchen_operations_semantic/kitchen_operations_semantic_9.png"",""x"":1064,""y"":804},{""src"":""https://test12345.live/images/semantic_sequence/kitchen_operations_semantic/kitchen_operations_semantic_5.png"",""x"":1291,""y"":577},{""src"":""https://test12345.live/images/semantic_sequence/kitchen_operations_semantic/kitchen_operations_semantic_ten.png"",""x"":1291,""y"":804}]","10",""
"","order","8","667790","0.0-8.0","66D67B76D5F8499B93188B4EDE1FB69F","conditionB","","103980","[""schematic_sequence/restaurant_scheme/restaurant_scheme_7"",""schematic_sequence/restaurant_scheme/restaurant_scheme_6"",""schematic_sequence/restaurant_scheme/restaurant_scheme_5"",""schematic_sequence/restaurant_scheme/restaurant_scheme_3"",""schematic_sequence/restaurant_scheme/restaurant_scheme_8"",""schematic_sequence/restaurant_scheme/restaurant_scheme_2"",""schematic_sequence/restaurant_scheme/restaurant_scheme_ten"",""schematic_sequence/restaurant_scheme/restaurant_scheme_4"",""schematic_sequence/restaurant_scheme/restaurant_scheme_9"",""schematic_sequence/restaurant_scheme/restaurant_scheme_1""]","[{""src"":""https://test12345.live/images/schematic_sequence/restaurant_scheme/restaurant_scheme_1.png"",""x"":384,""y"":577,""move_time"":14632},{""src"":""https://test12345.live/images/schematic_sequence/restaurant_scheme/restaurant_scheme_3.png"",""x"":611,""y"":577,""move_time"":10033},{""src"":""https://test12345.live/images/schematic_sequence/restaurant_scheme/restaurant_scheme_4.png"",""x"":837,""y"":577,""move_time"":3145},{""src"":""https://test12345.live/images/schematic_sequence/restaurant_scheme/restaurant_scheme_5.png"",""x"":1064,""y"":577,""move_time"":11035},{""src"":""https://test12345.live/images/schematic_sequence/restaurant_scheme/restaurant_scheme_5.png"",""x"":384,""y"":804,""move_time"":13531},{""src"":""https://test12345.live/images/schematic_sequence/restaurant_scheme/restaurant_scheme_4.png"",""x"":1064,""y"":577,""move_time"":3865},{""src"":""https://test12345.live/images/schematic_sequence/restaurant_scheme/restaurant_scheme_3.png"",""x"":837,""y"":577,""move_time"":2800},{""src"":""https://test12345.live/images/schematic_sequence/restaurant_scheme/restaurant_scheme_2.png"",""x"":611,""y"":577,""move_time"":3864},{""src"":""https://test12345.live/images/schematic_sequence/restaurant_scheme/restaurant_scheme_5.png"",""x"":1064,""y"":804,""move_time"":3519},{""src"":""https://test12345.live/images/schematic_sequence/restaurant_scheme/restaurant_scheme_5.png"",""x"":1064,""y"":804,""move_time"":1900},{""src"":""https://test12345.live/images/schematic_sequence/restaurant_scheme/restaurant_scheme_5.png"",""x"":1291,""y"":577,""move_time"":2584},{""src"":""https://test12345.live/images/schematic_sequence/restaurant_scheme/restaurant_scheme_6.png"",""x"":384,""y"":804,""move_time"":6162},{""src"":""https://test12345.live/images/schematic_sequence/restaurant_scheme/restaurant_scheme_7.png"",""x"":611,""y"":804,""move_time"":5637},{""src"":""https://test12345.live/images/schematic_sequence/restaurant_scheme/restaurant_scheme_8.png"",""x"":837,""y"":804,""move_time"":4824},{""src"":""https://test12345.live/images/schematic_sequence/restaurant_scheme/restaurant_scheme_9.png"",""x"":837,""y"":804,""move_time"":4076},{""src"":""https://test12345.live/images/schematic_sequence/restaurant_scheme/restaurant_scheme_9.png"",""x"":1064,""y"":804,""move_time"":3015},{""src"":""https://test12345.live/images/schematic_sequence/restaurant_scheme/restaurant_scheme_8.png"",""x"":837,""y"":804,""move_time"":3382},{""src"":""https://test12345.live/images/schematic_sequence/restaurant_scheme/restaurant_scheme_ten.png"",""x"":1291,""y"":804,""move_time"":4188}]","[{""src"":""https://test12345.live/images/schematic_sequence/restaurant_scheme/restaurant_scheme_1.png"",""x"":384,""y"":577},{""src"":""https://test12345.live/images/schematic_sequence/restaurant_scheme/restaurant_scheme_6.png"",""x"":384,""y"":804},{""src"":""https://test12345.live/images/schematic_sequence/restaurant_scheme/restaurant_scheme_2.png"",""x"":611,""y"":577},{""src"":""https://test12345.live/images/schematic_sequence/restaurant_scheme/restaurant_scheme_7.png"",""x"":611,""y"":804},{""src"":""https://test12345.live/images/schematic_sequence/restaurant_scheme/restaurant_scheme_3.png"",""x"":837,""y"":577},{""src"":""https://test12345.live/images/schematic_sequence/restaurant_scheme/restaurant_scheme_8.png"",""x"":837,""y"":804},{""src"":""https://test12345.live/images/schematic_sequence/restaurant_scheme/restaurant_scheme_4.png"",""x"":1064,""y"":577},{""src"":""https://test12345.live/images/schematic_sequence/restaurant_scheme/restaurant_scheme_9.png"",""x"":1064,""y"":804},{""src"":""https://test12345.live/images/schematic_sequence/restaurant_scheme/restaurant_scheme_5.png"",""x"":1291,""y"":577},{""src"":""https://test12345.live/images/schematic_sequence/restaurant_scheme/restaurant_scheme_ten.png"",""x"":1291,""y"":804}]","18",""
"","order","9","745979","0.0-9.0","66D67B76D5F8499B93188B4EDE1FB69F","conditionB","","78188","[""semantic_sequence/traveling_semantic/traveling_semantic_7"",""semantic_sequence/traveling_semantic/traveling_semantic_9"",""semantic_sequence/traveling_semantic/traveling_semantic_4"",""semantic_sequence/traveling_semantic/traveling_semantic_6"",""semantic_sequence/traveling_semantic/traveling_semantic_1"",""semantic_sequence/traveling_semantic/traveling_semantic_5"",""semantic_sequence/traveling_semantic/traveling_semantic_8"",""semantic_sequence/traveling_semantic/traveling_semantic_ten"",""semantic_sequence/traveling_semantic/traveling_semantic_2"",""semantic_sequence/traveling_semantic/traveling_semantic_3""]","[{""src"":""https://test12345.live/images/semantic_sequence/traveling_semantic/traveling_semantic_1.png"",""x"":384,""y"":577,""move_time"":13993},{""src"":""https://test12345.live/images/semantic_sequence/traveling_semantic/traveling_semantic_2.png"",""x"":611,""y"":577,""move_time"":5313},{""src"":""https://test12345.live/images/semantic_sequence/traveling_semantic/traveling_semantic_3.png"",""x"":837,""y"":577,""move_time"":3202},{""src"":""https://test12345.live/images/semantic_sequence/traveling_semantic/traveling_semantic_4.png"",""x"":1064,""y"":577,""move_time"":3612},{""src"":""https://test12345.live/images/semantic_sequence/traveling_semantic/traveling_semantic_5.png"",""x"":1064,""y"":577,""move_time"":4624},{""src"":""https://test12345.live/images/semantic_sequence/traveling_semantic/traveling_semantic_3.png"",""x"":1064,""y"":577,""move_time"":454},{""src"":""https://test12345.live/images/semantic_sequence/traveling_semantic/traveling_semantic_5.png"",""x"":1291,""y"":577,""move_time"":4659},{""src"":""https://test12345.live/images/semantic_sequence/traveling_semantic/traveling_semantic_3.png"",""x"":837,""y"":577,""move_time"":2050},{""src"":""https://test12345.live/images/semantic_sequence/traveling_semantic/traveling_semantic_4.png"",""x"":1064,""y"":577,""move_time"":6769},{""src"":""https://test12345.live/images/semantic_sequence/traveling_semantic/traveling_semantic_6.png"",""x"":384,""y"":804,""move_time"":8996},{""src"":""https://test12345.live/images/semantic_sequence/traveling_semantic/traveling_semantic_7.png"",""x"":611,""y"":804,""move_time"":7608},{""src"":""https://test12345.live/images/semantic_sequence/traveling_semantic/traveling_semantic_8.png"",""x"":837,""y"":804,""move_time"":6033},{""src"":""https://test12345.live/images/semantic_sequence/traveling_semantic/traveling_semantic_9.png"",""x"":1064,""y"":804,""move_time"":5291},{""src"":""https://test12345.live/images/semantic_sequence/traveling_semantic/traveling_semantic_ten.png"",""x"":1291,""y"":804,""move_time"":3829}]","[{""src"":""https://test12345.live/images/semantic_sequence/traveling_semantic/traveling_semantic_1.png"",""x"":384,""y"":577},{""src"":""https://test12345.live/images/semantic_sequence/traveling_semantic/traveling_semantic_6.png"",""x"":384,""y"":804},{""src"":""https://test12345.live/images/semantic_sequence/traveling_semantic/traveling_semantic_2.png"",""x"":611,""y"":577},{""src"":""https://test12345.live/images/semantic_sequence/traveling_semantic/traveling_semantic_7.png"",""x"":611,""y"":804},{""src"":""https://test12345.live/images/semantic_sequence/traveling_semantic/traveling_semantic_3.png"",""x"":837,""y"":577},{""src"":""https://test12345.live/images/semantic_sequence/traveling_semantic/traveling_semantic_8.png"",""x"":837,""y"":804},{""src"":""https://test12345.live/images/semantic_sequence/traveling_semantic/traveling_semantic_4.png"",""x"":1064,""y"":577},{""src"":""https://test12345.live/images/semantic_sequence/traveling_semantic/traveling_semantic_9.png"",""x"":1064,""y"":804},{""src"":""https://test12345.live/images/semantic_sequence/traveling_semantic/traveling_semantic_5.png"",""x"":1291,""y"":577},{""src"":""https://test12345.live/images/semantic_sequence/traveling_semantic/traveling_semantic_ten.png"",""x"":1291,""y"":804}]","14",""
"","order","10","848409","0.0-10.0","66D67B76D5F8499B93188B4EDE1FB69F","conditionB","","102429","[""schematic_sequence/dinner_party_scheme/dinner_party_scheme_2"",""schematic_sequence/dinner_party_scheme/dinner_party_scheme_6"",""schematic_sequence/dinner_party_scheme/dinner_party_scheme_4"",""schematic_sequence/dinner_party_scheme/dinner_party_scheme_7"",""schematic_sequence/dinner_party_scheme/dinner_party_scheme_9"",""schematic_sequence/dinner_party_scheme/dinner_party_scheme_3"",""schematic_sequence/dinner_party_scheme/dinner_party_scheme_ten"",""schematic_sequence/dinner_party_scheme/dinner_party_scheme_1"",""schematic_sequence/dinner_party_scheme/dinner_party_scheme_5"",""schematic_sequence/dinner_party_scheme/dinner_party_scheme_8""]","[{""src"":""https://test12345.live/images/schematic_sequence/dinner_party_scheme/dinner_party_scheme_1.png"",""x"":384,""y"":577,""move_time"":17285},{""src"":""https://test12345.live/images/schematic_sequence/dinner_party_scheme/dinner_party_scheme_2.png"",""x"":611,""y"":577,""move_time"":11646},{""src"":""https://test12345.live/images/schematic_sequence/dinner_party_scheme/dinner_party_scheme_3.png"",""x"":837,""y"":577,""move_time"":3102},{""src"":""https://test12345.live/images/schematic_sequence/dinner_party_scheme/dinner_party_scheme_ten.png"",""x"":1064,""y"":577,""move_time"":6003},{""src"":""https://test12345.live/images/schematic_sequence/dinner_party_scheme/dinner_party_scheme_5.png"",""x"":1291,""y"":577,""move_time"":5462},{""src"":""https://test12345.live/images/schematic_sequence/dinner_party_scheme/dinner_party_scheme_4.png"",""x"":384,""y"":804,""move_time"":18711},{""src"":""https://test12345.live/images/schematic_sequence/dinner_party_scheme/dinner_party_scheme_6.png"",""x"":611,""y"":804,""move_time"":6792},{""src"":""https://test12345.live/images/schematic_sequence/dinner_party_scheme/dinner_party_scheme_7.png"",""x"":837,""y"":804,""move_time"":5679},{""src"":""https://test12345.live/images/schematic_sequence/dinner_party_scheme/dinner_party_scheme_8.png"",""x"":1064,""y"":804,""move_time"":21714},{""src"":""https://test12345.live/images/schematic_sequence/dinner_party_scheme/dinner_party_scheme_9.png"",""x"":1291,""y"":804,""move_time"":4317}]","[{""src"":""https://test12345.live/images/schematic_sequence/dinner_party_scheme/dinner_party_scheme_1.png"",""x"":384,""y"":577},{""src"":""https://test12345.live/images/schematic_sequence/dinner_party_scheme/dinner_party_scheme_4.png"",""x"":384,""y"":804},{""src"":""https://test12345.live/images/schematic_sequence/dinner_party_scheme/dinner_party_scheme_2.png"",""x"":611,""y"":577},{""src"":""https://test12345.live/images/schematic_sequence/dinner_party_scheme/dinner_party_scheme_6.png"",""x"":611,""y"":804},{""src"":""https://test12345.live/images/schematic_sequence/dinner_party_scheme/dinner_party_scheme_3.png"",""x"":837,""y"":577},{""src"":""https://test12345.live/images/schematic_sequence/dinner_party_scheme/dinner_party_scheme_7.png"",""x"":837,""y"":804},{""src"":""https://test12345.live/images/schematic_sequence/dinner_party_scheme/dinner_party_scheme_ten.png"",""x"":1064,""y"":577},{""src"":""https://test12345.live/images/schematic_sequence/dinner_party_scheme/dinner_party_scheme_8.png"",""x"":1064,""y"":804},{""src"":""https://test12345.live/images/schematic_sequence/dinner_party_scheme/dinner_party_scheme_5.png"",""x"":1291,""y"":577},{""src"":""https://test12345.live/images/schematic_sequence/dinner_party_scheme/dinner_party_scheme_9.png"",""x"":1291,""y"":804}]","10",""
"","order","11","933886","0.0-11.0","66D67B76D5F8499B93188B4EDE1FB69F","conditionB","","85476","[""schematic_sequence/interview_scheme/interview_scheme_5"",""schematic_sequence/interview_scheme/interview_scheme_ten"",""schematic_sequence/interview_scheme/interview_scheme_2"",""schematic_sequence/interview_scheme/interview_scheme_7"",""schematic_sequence/interview_scheme/interview_scheme_3"",""schematic_sequence/interview_scheme/interview_scheme_4"",""schematic_sequence/interview_scheme/interview_scheme_8"",""schematic_sequence/interview_scheme/interview_scheme_6"",""schematic_sequence/interview_scheme/interview_scheme_9"",""schematic_sequence/interview_scheme/interview_scheme_1""]","[{""src"":""https://test12345.live/images/schematic_sequence/interview_scheme/interview_scheme_2.png"",""x"":384,""y"":577,""move_time"":11029},{""src"":""https://test12345.live/images/schematic_sequence/interview_scheme/interview_scheme_2.png"",""x"":611,""y"":577,""move_time"":9064},{""src"":""https://test12345.live/images/schematic_sequence/interview_scheme/interview_scheme_1.png"",""x"":384,""y"":577,""move_time"":4100},{""src"":""https://test12345.live/images/schematic_sequence/interview_scheme/interview_scheme_3.png"",""x"":837,""y"":577,""move_time"":11780},{""src"":""https://test12345.live/images/schematic_sequence/interview_scheme/interview_scheme_4.png"",""x"":1064,""y"":577,""move_time"":6734},{""src"":""https://test12345.live/images/schematic_sequence/interview_scheme/interview_scheme_5.png"",""x"":1291,""y"":577,""move_time"":5151},{""src"":""https://test12345.live/images/schematic_sequence/interview_scheme/interview_scheme_6.png"",""x"":384,""y"":804,""move_time"":7097},{""src"":""https://test12345.live/images/schematic_sequence/interview_scheme/interview_scheme_7.png"",""x"":611,""y"":577,""move_time"":3101},{""src"":""https://test12345.live/images/schematic_sequence/interview_scheme/interview_scheme_7.png"",""x"":611,""y"":804,""move_time"":3279},{""src"":""https://test12345.live/images/schematic_sequence/interview_scheme/interview_scheme_2.png"",""x"":611,""y"":577,""move_time"":3749},{""src"":""https://test12345.live/images/schematic_sequence/interview_scheme/interview_scheme_8.png"",""x"":837,""y"":804,""move_time"":9356},{""src"":""https://test12345.live/images/schematic_sequence/interview_scheme/interview_scheme_9.png"",""x"":1064,""y"":804,""move_time"":3890},{""src"":""https://test12345.live/images/schematic_sequence/interview_scheme/interview_scheme_ten.png"",""x"":1291,""y"":804,""move_time"":5408}]","[{""src"":""https://test12345.live/images/schematic_sequence/interview_scheme/interview_scheme_1.png"",""x"":384,""y"":577},{""src"":""https://test12345.live/images/schematic_sequence/interview_scheme/interview_scheme_6.png"",""x"":384,""y"":804},{""src"":""https://test12345.live/images/schematic_sequence/interview_scheme/interview_scheme_2.png"",""x"":611,""y"":577},{""src"":""https://test12345.live/images/schematic_sequence/interview_scheme/interview_scheme_7.png"",""x"":611,""y"":804},{""src"":""https://test12345.live/images/schematic_sequence/interview_scheme/interview_scheme_3.png"",""x"":837,""y"":577},{""src"":""https://test12345.live/images/schematic_sequence/interview_scheme/interview_scheme_8.png"",""x"":837,""y"":804},{""src"":""https://test12345.live/images/schematic_sequence/interview_scheme/interview_scheme_4.png"",""x"":1064,""y"":577},{""src"":""https://test12345.live/images/schematic_sequence/interview_scheme/interview_scheme_9.png"",""x"":1064,""y"":804},{""src"":""https://test12345.live/images/schematic_sequence/interview_scheme/interview_scheme_5.png"",""x"":1291,""y"":577},{""src"":""https://test12345.live/images/schematic_sequence/interview_scheme/interview_scheme_ten.png"",""x"":1291,""y"":804}]","13",""
"","order","12","1016763","0.0-12.0","66D67B76D5F8499B93188B4EDE1FB69F","conditionB","","82876","[""causal_sequence/museum_causal/museum_causal_3"",""causal_sequence/museum_causal/museum_causal_4"",""causal_sequence/museum_causal/museum_causal_ten"",""causal_sequence/museum_causal/museum_causal_6"",""causal_sequence/museum_causal/museum_causal_9"",""causal_sequence/museum_causal/museum_causal_5"",""causal_sequence/museum_causal/museum_causal_2"",""causal_sequence/museum_causal/museum_causal_8"",""causal_sequence/museum_causal/museum_causal_1"",""causal_sequence/museum_causal/museum_causal_7""]","[{""src"":""https://test12345.live/images/causal_sequence/museum_causal/museum_causal_1.png"",""x"":611,""y"":577,""move_time"":15543},{""src"":""https://test12345.live/images/causal_sequence/museum_causal/museum_causal_1.png"",""x"":384,""y"":577,""move_time"":2530},{""src"":""https://test12345.live/images/causal_sequence/museum_causal/museum_causal_2.png"",""x"":611,""y"":577,""move_time"":11188},{""src"":""https://test12345.live/images/causal_sequence/museum_causal/museum_causal_3.png"",""x"":837,""y"":577,""move_time"":8912},{""src"":""https://test12345.live/images/causal_sequence/museum_causal/museum_causal_4.png"",""x"":1064,""y"":577,""move_time"":10282},{""src"":""https://test12345.live/images/causal_sequence/museum_causal/museum_causal_5.png"",""x"":1291,""y"":577,""move_time"":4450},{""src"":""https://test12345.live/images/causal_sequence/museum_causal/museum_causal_6.png"",""x"":384,""y"":804,""move_time"":6354},{""src"":""https://test12345.live/images/causal_sequence/museum_causal/museum_causal_7.png"",""x"":611,""y"":804,""move_time"":7041},{""src"":""https://test12345.live/images/causal_sequence/museum_causal/museum_causal_ten.png"",""x"":837,""y"":804,""move_time"":6719},{""src"":""https://test12345.live/images/causal_sequence/museum_causal/museum_causal_8.png"",""x"":1064,""y"":804,""move_time"":3871},{""src"":""https://test12345.live/images/causal_sequence/museum_causal/museum_causal_9.png"",""x"":1291,""y"":804,""move_time"":4532}]","[{""src"":""https://test12345.live/images/causal_sequence/museum_causal/museum_causal_1.png"",""x"":384,""y"":577},{""src"":""https://test12345.live/images/causal_sequence/museum_causal/museum_causal_6.png"",""x"":384,""y"":804},{""src"":""https://test12345.live/images/causal_sequence/museum_causal/museum_causal_2.png"",""x"":611,""y"":577},{""src"":""https://test12345.live/images/causal_sequence/museum_causal/museum_causal_7.png"",""x"":611,""y"":804},{""src"":""https://test12345.live/images/causal_sequence/museum_causal/museum_causal_3.png"",""x"":837,""y"":577},{""src"":""https://test12345.live/images/causal_sequence/museum_causal/museum_causal_ten.png"",""x"":837,""y"":804},{""src"":""https://test12345.live/images/causal_sequence/museum_causal/museum_causal_4.png"",""x"":1064,""y"":577},{""src"":""https://test12345.live/images/causal_sequence/museum_causal/museum_causal_8.png"",""x"":1064,""y"":804},{""src"":""https://test12345.live/images/causal_sequence/museum_causal/museum_causal_5.png"",""x"":1291,""y"":577},{""src"":""https://test12345.live/images/causal_sequence/museum_causal/museum_causal_9.png"",""x"":1291,""y"":804}]","11",""
"","order","13","1078741","0.0-13.0","66D67B76D5F8499B93188B4EDE1FB69F","conditionB","","61977","[""semantic_sequence/using_technology_semantic/using_technology_semantic_2"",""semantic_sequence/using_technology_semantic/using_technology_semantic_1"",""semantic_sequence/using_technology_semantic/using_technology_semantic_6"",""semantic_sequence/using_technology_semantic/using_technology_semantic_8"",""semantic_sequence/using_technology_semantic/using_technology_semantic_5"",""semantic_sequence/using_technology_semantic/using_technology_semantic_9"",""semantic_sequence/using_technology_semantic/using_technology_semantic_ten"",""semantic_sequence/using_technology_semantic/using_technology_semantic_3"",""semantic_sequence/using_technology_semantic/using_technology_semantic_4"",""semantic_sequence/using_technology_semantic/using_technology_semantic_7""]","[{""src"":""https://test12345.live/images/semantic_sequence/using_technology_semantic/using_technology_semantic_1.png"",""x"":384,""y"":577,""move_time"":10798},{""src"":""https://test12345.live/images/semantic_sequence/using_technology_semantic/using_technology_semantic_2.png"",""x"":611,""y"":577,""move_time"":4261},{""src"":""https://test12345.live/images/semantic_sequence/using_technology_semantic/using_technology_semantic_3.png"",""x"":837,""y"":577,""move_time"":4624},{""src"":""https://test12345.live/images/semantic_sequence/using_technology_semantic/using_technology_semantic_4.png"",""x"":1064,""y"":577,""move_time"":2767},{""src"":""https://test12345.live/images/semantic_sequence/using_technology_semantic/using_technology_semantic_5.png"",""x"":1291,""y"":577,""move_time"":5322},{""src"":""https://test12345.live/images/semantic_sequence/using_technology_semantic/using_technology_semantic_6.png"",""x"":384,""y"":804,""move_time"":6519},{""src"":""https://test12345.live/images/semantic_sequence/using_technology_semantic/using_technology_semantic_7.png"",""x"":611,""y"":804,""move_time"":4996},{""src"":""https://test12345.live/images/semantic_sequence/using_technology_semantic/using_technology_semantic_8.png"",""x"":837,""y"":577,""move_time"":3822},{""src"":""https://test12345.live/images/semantic_sequence/using_technology_semantic/using_technology_semantic_8.png"",""x"":837,""y"":804,""move_time"":4404},{""src"":""https://test12345.live/images/semantic_sequence/using_technology_semantic/using_technology_semantic_3.png"",""x"":837,""y"":577,""move_time"":2578},{""src"":""https://test12345.live/images/semantic_sequence/using_technology_semantic/using_technology_semantic_9.png"",""x"":1064,""y"":804,""move_time"":4792},{""src"":""https://test12345.live/images/semantic_sequence/using_technology_semantic/using_technology_semantic_ten.png"",""x"":1291,""y"":804,""move_time"":5580}]","[{""src"":""https://test12345.live/images/semantic_sequence/using_technology_semantic/using_technology_semantic_1.png"",""x"":384,""y"":577},{""src"":""https://test12345.live/images/semantic_sequence/using_technology_semantic/using_technology_semantic_6.png"",""x"":384,""y"":804},{""src"":""https://test12345.live/images/semantic_sequence/using_technology_semantic/using_technology_semantic_2.png"",""x"":611,""y"":577},{""src"":""https://test12345.live/images/semantic_sequence/using_technology_semantic/using_technology_semantic_7.png"",""x"":611,""y"":804},{""src"":""https://test12345.live/images/semantic_sequence/using_technology_semantic/using_technology_semantic_3.png"",""x"":837,""y"":577},{""src"":""https://test12345.live/images/semantic_sequence/using_technology_semantic/using_technology_semantic_8.png"",""x"":837,""y"":804},{""src"":""https://test12345.live/images/semantic_sequence/using_technology_semantic/using_technology_semantic_4.png"",""x"":1064,""y"":577},{""src"":""https://test12345.live/images/semantic_sequence/using_technology_semantic/using_technology_semantic_9.png"",""x"":1064,""y"":804},{""src"":""https://test12345.live/images/semantic_sequence/using_technology_semantic/using_technology_semantic_5.png"",""x"":1291,""y"":577},{""src"":""https://test12345.live/images/semantic_sequence/using_technology_semantic/using_technology_semantic_ten.png"",""x"":1291,""y"":804}]","12",""
"","order","14","1228452","0.0-14.0","66D67B76D5F8499B93188B4EDE1FB69F","conditionB","","149710","[""semantic_sequence/housework_semantic/housework_semantic_2"",""semantic_sequence/housework_semantic/housework_semantic_1"",""semantic_sequence/housework_semantic/housework_semantic_4"",""semantic_sequence/housework_semantic/housework_semantic_ten"",""semantic_sequence/housework_semantic/housework_semantic_5"",""semantic_sequence/housework_semantic/housework_semantic_3"",""semantic_sequence/housework_semantic/housework_semantic_9"",""semantic_sequence/housework_semantic/housework_semantic_7"",""semantic_sequence/housework_semantic/housework_semantic_6"",""semantic_sequence/housework_semantic/housework_semantic_8""]","[{""src"":""https://test12345.live/images/semantic_sequence/housework_semantic/housework_semantic_3.png"",""x"":384,""y"":577,""move_time"":58676},{""src"":""https://test12345.live/images/semantic_sequence/housework_semantic/housework_semantic_1.png"",""x"":611,""y"":577,""move_time"":18006},{""src"":""https://test12345.live/images/semantic_sequence/housework_semantic/housework_semantic_5.png"",""x"":837,""y"":577,""move_time"":8411},{""src"":""https://test12345.live/images/semantic_sequence/housework_semantic/housework_semantic_2.png"",""x"":1064,""y"":577,""move_time"":4501},{""src"":""https://test12345.live/images/semantic_sequence/housework_semantic/housework_semantic_6.png"",""x"":1291,""y"":577,""move_time"":27776},{""src"":""https://test12345.live/images/semantic_sequence/housework_semantic/housework_semantic_7.png"",""x"":384,""y"":804,""move_time"":11518},{""src"":""https://test12345.live/images/semantic_sequence/housework_semantic/housework_semantic_4.png"",""x"":611,""y"":804,""move_time"":5634},{""src"":""https://test12345.live/images/semantic_sequence/housework_semantic/housework_semantic_8.png"",""x"":837,""y"":804,""move_time"":4518},{""src"":""https://test12345.live/images/semantic_sequence/housework_semantic/housework_semantic_9.png"",""x"":1064,""y"":804,""move_time"":4317},{""src"":""https://test12345.live/images/semantic_sequence/housework_semantic/housework_semantic_ten.png"",""x"":1291,""y"":804,""move_time"":5165}]","[{""src"":""https://test12345.live/images/semantic_sequence/housework_semantic/housework_semantic_3.png"",""x"":384,""y"":577},{""src"":""https://test12345.live/images/semantic_sequence/housework_semantic/housework_semantic_7.png"",""x"":384,""y"":804},{""src"":""https://test12345.live/images/semantic_sequence/housework_semantic/housework_semantic_1.png"",""x"":611,""y"":577},{""src"":""https://test12345.live/images/semantic_sequence/housework_semantic/housework_semantic_4.png"",""x"":611,""y"":804},{""src"":""https://test12345.live/images/semantic_sequence/housework_semantic/housework_semantic_5.png"",""x"":837,""y"":577},{""src"":""https://test12345.live/images/semantic_sequence/housework_semantic/housework_semantic_8.png"",""x"":837,""y"":804},{""src"":""https://test12345.live/images/semantic_sequence/housework_semantic/housework_semantic_2.png"",""x"":1064,""y"":577},{""src"":""https://test12345.live/images/semantic_sequence/housework_semantic/housework_semantic_9.png"",""x"":1064,""y"":804},{""src"":""https://test12345.live/images/semantic_sequence/housework_semantic/housework_semantic_6.png"",""x"":1291,""y"":577},{""src"":""https://test12345.live/images/semantic_sequence/housework_semantic/housework_semantic_ten.png"",""x"":1291,""y"":804}]","10",""
"","order","15","1293655","0.0-15.0","66D67B76D5F8499B93188B4EDE1FB69F","conditionB","","65202","[""causal_sequence/saving_a_cat_causal/saving_a_cat_causal_9"",""causal_sequence/saving_a_cat_causal/saving_a_cat_causal_ten"",""causal_sequence/saving_a_cat_causal/saving_a_cat_causal_7"",""causal_sequence/saving_a_cat_causal/saving_a_cat_causal_2"",""causal_sequence/saving_a_cat_causal/saving_a_cat_causal_1"",""causal_sequence/saving_a_cat_causal/saving_a_cat_causal_4"",""causal_sequence/saving_a_cat_causal/saving_a_cat_causal_8"",""causal_sequence/saving_a_cat_causal/saving_a_cat_causal_3"",""causal_sequence/saving_a_cat_causal/saving_a_cat_causal_6"",""causal_sequence/saving_a_cat_causal/saving_a_cat_causal_5""]","[{""src"":""https://test12345.live/images/causal_sequence/saving_a_cat_causal/saving_a_cat_causal_1.png"",""x"":384,""y"":577,""move_time"":15703},{""src"":""https://test12345.live/images/causal_sequence/saving_a_cat_causal/saving_a_cat_causal_2.png"",""x"":611,""y"":577,""move_time"":6622},{""src"":""https://test12345.live/images/causal_sequence/saving_a_cat_causal/saving_a_cat_causal_3.png"",""x"":837,""y"":577,""move_time"":2664},{""src"":""https://test12345.live/images/causal_sequence/saving_a_cat_causal/saving_a_cat_causal_4.png"",""x"":1064,""y"":577,""move_time"":5967},{""src"":""https://test12345.live/images/causal_sequence/saving_a_cat_causal/saving_a_cat_causal_5.png"",""x"":1291,""y"":577,""move_time"":4372},{""src"":""https://test12345.live/images/causal_sequence/saving_a_cat_causal/saving_a_cat_causal_6.png"",""x"":384,""y"":804,""move_time"":6698},{""src"":""https://test12345.live/images/causal_sequence/saving_a_cat_causal/saving_a_cat_causal_7.png"",""x"":611,""y"":804,""move_time"":5149},{""src"":""https://test12345.live/images/causal_sequence/saving_a_cat_causal/saving_a_cat_causal_8.png"",""x"":837,""y"":804,""move_time"":4068},{""src"":""https://test12345.live/images/causal_sequence/saving_a_cat_causal/saving_a_cat_causal_9.png"",""x"":1064,""y"":804,""move_time"":7897},{""src"":""https://test12345.live/images/causal_sequence/saving_a_cat_causal/saving_a_cat_causal_ten.png"",""x"":1291,""y"":804,""move_time"":4201}]","[{""src"":""https://test12345.live/images/causal_sequence/saving_a_cat_causal/saving_a_cat_causal_1.png"",""x"":384,""y"":577},{""src"":""https://test12345.live/images/causal_sequence/saving_a_cat_causal/saving_a_cat_causal_6.png"",""x"":384,""y"":804},{""src"":""https://test12345.live/images/causal_sequence/saving_a_cat_causal/saving_a_cat_causal_2.png"",""x"":611,""y"":577},{""src"":""https://test12345.live/images/causal_sequence/saving_a_cat_causal/saving_a_cat_causal_7.png"",""x"":611,""y"":804},{""src"":""https://test12345.live/images/causal_sequence/saving_a_cat_causal/saving_a_cat_causal_3.png"",""x"":837,""y"":577},{""src"":""https://test12345.live/images/causal_sequence/saving_a_cat_causal/saving_a_cat_causal_8.png"",""x"":837,""y"":804},{""src"":""https://test12345.live/images/causal_sequence/saving_a_cat_causal/saving_a_cat_causal_4.png"",""x"":1064,""y"":577},{""src"":""https://test12345.live/images/causal_sequence/saving_a_cat_causal/saving_a_cat_causal_9.png"",""x"":1064,""y"":804},{""src"":""https://test12345.live/images/causal_sequence/saving_a_cat_causal/saving_a_cat_causal_5.png"",""x"":1291,""y"":577},{""src"":""https://test12345.live/images/causal_sequence/saving_a_cat_causal/saving_a_cat_causal_ten.png"",""x"":1291,""y"":804}]","10",""
"","order","16","1381964","0.0-16.0","66D67B76D5F8499B93188B4EDE1FB69F","conditionB","","88308","[""schematic_sequence/flight_scheme/flight_scheme_4"",""schematic_sequence/flight_scheme/flight_scheme_9"",""schematic_sequence/flight_scheme/flight_scheme_7"",""schematic_sequence/flight_scheme/flight_scheme_ten"",""schematic_sequence/flight_scheme/flight_scheme_5"",""schematic_sequence/flight_scheme/flight_scheme_8"",""schematic_sequence/flight_scheme/flight_scheme_6"",""schematic_sequence/flight_scheme/flight_scheme_1"",""schematic_sequence/flight_scheme/flight_scheme_2"",""schematic_sequence/flight_scheme/flight_scheme_3""]","[{""src"":""https://test12345.live/images/schematic_sequence/flight_scheme/flight_scheme_1.png"",""x"":384,""y"":577,""move_time"":14926},{""src"":""https://test12345.live/images/schematic_sequence/flight_scheme/flight_scheme_2.png"",""x"":611,""y"":577,""move_time"":10317},{""src"":""https://test12345.live/images/schematic_sequence/flight_scheme/flight_scheme_3.png"",""x"":837,""y"":577,""move_time"":10767},{""src"":""https://test12345.live/images/schematic_sequence/flight_scheme/flight_scheme_3.png"",""x"":1064,""y"":577,""move_time"":7212},{""src"":""https://test12345.live/images/schematic_sequence/flight_scheme/flight_scheme_4.png"",""x"":837,""y"":577,""move_time"":4760},{""src"":""https://test12345.live/images/schematic_sequence/flight_scheme/flight_scheme_5.png"",""x"":1291,""y"":577,""move_time"":11984},{""src"":""https://test12345.live/images/schematic_sequence/flight_scheme/flight_scheme_7.png"",""x"":837,""y"":78,""move_time"":5060},{""src"":""https://test12345.live/images/schematic_sequence/flight_scheme/flight_scheme_6.png"",""x"":384,""y"":804,""move_time"":3207},{""src"":""https://test12345.live/images/schematic_sequence/flight_scheme/flight_scheme_7.png"",""x"":611,""y"":804,""move_time"":4034},{""src"":""https://test12345.live/images/schematic_sequence/flight_scheme/flight_scheme_8.png"",""x"":837,""y"":804,""move_time"":5625},{""src"":""https://test12345.live/images/schematic_sequence/flight_scheme/flight_scheme_9.png"",""x"":1064,""y"":804,""move_time"":4733},{""src"":""https://test12345.live/images/schematic_sequence/flight_scheme/flight_scheme_ten.png"",""x"":1291,""y"":804,""move_time"":3832}]","[{""src"":""https://test12345.live/images/schematic_sequence/flight_scheme/flight_scheme_1.png"",""x"":384,""y"":577},{""src"":""https://test12345.live/images/schematic_sequence/flight_scheme/flight_scheme_6.png"",""x"":384,""y"":804},{""src"":""https://test12345.live/images/schematic_sequence/flight_scheme/flight_scheme_2.png"",""x"":611,""y"":577},{""src"":""https://test12345.live/images/schematic_sequence/flight_scheme/flight_scheme_7.png"",""x"":611,""y"":804},{""src"":""https://test12345.live/images/schematic_sequence/flight_scheme/flight_scheme_4.png"",""x"":837,""y"":577},{""src"":""https://test12345.live/images/schematic_sequence/flight_scheme/flight_scheme_8.png"",""x"":837,""y"":804},{""src"":""https://test12345.live/images/schematic_sequence/flight_scheme/flight_scheme_3.png"",""x"":1064,""y"":577},{""src"":""https://test12345.live/images/schematic_sequence/flight_scheme/flight_scheme_9.png"",""x"":1064,""y"":804},{""src"":""https://test12345.live/images/schematic_sequence/flight_scheme/flight_scheme_5.png"",""x"":1291,""y"":577},{""src"":""https://test12345.live/images/schematic_sequence/flight_scheme/flight_scheme_ten.png"",""x"":1291,""y"":804}]","12",""
"","order","17","1467694","0.0-17.0","66D67B76D5F8499B93188B4EDE1FB69F","conditionB","","85729","[""causal_sequence/package_causal/package_causal_8"",""causal_sequence/package_causal/package_causal_1"",""causal_sequence/package_causal/package_causal_3"",""causal_sequence/package_causal/package_causal_2"",""causal_sequence/package_causal/package_causal_7"",""causal_sequence/package_causal/package_causal_5"",""causal_sequence/package_causal/package_causal_6"",""causal_sequence/package_causal/package_causal_9"",""causal_sequence/package_causal/package_causal_4"",""causal_sequence/package_causal/package_causal_ten""]","[{""src"":""https://test12345.live/images/causal_sequence/package_causal/package_causal_5.png"",""x"":384,""y"":577,""move_time"":16292},{""src"":""https://test12345.live/images/causal_sequence/package_causal/package_causal_5.png"",""x"":384,""y"":577,""move_time"":6380},{""src"":""https://test12345.live/images/causal_sequence/package_causal/package_causal_5.png"",""x"":384,""y"":305,""move_time"":2272},{""src"":""https://test12345.live/images/causal_sequence/package_causal/package_causal_1.png"",""x"":384,""y"":577,""move_time"":11581},{""src"":""https://test12345.live/images/causal_sequence/package_causal/package_causal_2.png"",""x"":611,""y"":577,""move_time"":5250},{""src"":""https://test12345.live/images/causal_sequence/package_causal/package_causal_3.png"",""x"":837,""y"":577,""move_time"":2551},{""src"":""https://test12345.live/images/causal_sequence/package_causal/package_causal_5.png"",""x"":837,""y"":577,""move_time"":5199},{""src"":""https://test12345.live/images/causal_sequence/package_causal/package_causal_5.png"",""x"":837,""y"":577,""move_time"":5376},{""src"":""https://test12345.live/images/causal_sequence/package_causal/package_causal_5.png"",""x"":1291,""y"":577,""move_time"":3658},{""src"":""https://test12345.live/images/causal_sequence/package_causal/package_causal_3.png"",""x"":837,""y"":577,""move_time"":2782},{""src"":""https://test12345.live/images/causal_sequence/package_causal/package_causal_4.png"",""x"":1064,""y"":577,""move_time"":2700},{""src"":""https://test12345.live/images/causal_sequence/package_causal/package_causal_6.png"",""x"":384,""y"":804,""move_time"":4484},{""src"":""https://test12345.live/images/causal_sequence/package_causal/package_causal_7.png"",""x"":611,""y"":804,""move_time"":4882},{""src"":""https://test12345.live/images/causal_sequence/package_causal/package_causal_8.png"",""x"":837,""y"":804,""move_time"":4931},{""src"":""https://test12345.live/images/causal_sequence/package_causal/package_causal_9.png"",""x"":1064,""y"":804,""move_time"":3006},{""src"":""https://test12345.live/images/causal_sequence/package_causal/package_causal_ten.png"",""x"":1291,""y"":804,""move_time"":3173}]","[{""src"":""https://test12345.live/images/causal_sequence/package_causal/package_causal_1.png"",""x"":384,""y"":577},{""src"":""https://test12345.live/images/causal_sequence/package_causal/package_causal_6.png"",""x"":384,""y"":804},{""src"":""https://test12345.live/images/causal_sequence/package_causal/package_causal_2.png"",""x"":611,""y"":577},{""src"":""https://test12345.live/images/causal_sequence/package_causal/package_causal_7.png"",""x"":611,""y"":804},{""src"":""https://test12345.live/images/causal_sequence/package_causal/package_causal_3.png"",""x"":837,""y"":577},{""src"":""https://test12345.live/images/causal_sequence/package_causal/package_causal_8.png"",""x"":837,""y"":804},{""src"":""https://test12345.live/images/causal_sequence/package_causal/package_causal_4.png"",""x"":1064,""y"":577},{""src"":""https://test12345.live/images/causal_sequence/package_causal/package_causal_9.png"",""x"":1064,""y"":804},{""src"":""https://test12345.live/images/causal_sequence/package_causal/package_causal_5.png"",""x"":1291,""y"":577},{""src"":""https://test12345.live/images/causal_sequence/package_causal/package_causal_ten.png"",""x"":1291,""y"":804}]","16",""
"","order","18","1576541","0.0-18.0","66D67B76D5F8499B93188B4EDE1FB69F","conditionB","","108846","[""semantic_sequence/cat_care_semantic/cat_care_semantic_4"",""semantic_sequence/cat_care_semantic/cat_care_semantic_8"",""semantic_sequence/cat_care_semantic/cat_care_semantic_9"",""semantic_sequence/cat_care_semantic/cat_care_semantic_5"",""semantic_sequence/cat_care_semantic/cat_care_semantic_ten"",""semantic_sequence/cat_care_semantic/cat_care_semantic_2"",""semantic_sequence/cat_care_semantic/cat_care_semantic_1"",""semantic_sequence/cat_care_semantic/cat_care_semantic_6"",""semantic_sequence/cat_care_semantic/cat_care_semantic_3"",""semantic_sequence/cat_care_semantic/cat_care_semantic_7""]","[{""src"":""https://test12345.live/images/semantic_sequence/cat_care_semantic/cat_care_semantic_6.png"",""x"":384,""y"":577,""move_time"":31356},{""src"":""https://test12345.live/images/semantic_sequence/cat_care_semantic/cat_care_semantic_1.png"",""x"":611,""y"":577,""move_time"":3580},{""src"":""https://test12345.live/images/semantic_sequence/cat_care_semantic/cat_care_semantic_3.png"",""x"":837,""y"":577,""move_time"":26196},{""src"":""https://test12345.live/images/semantic_sequence/cat_care_semantic/cat_care_semantic_2.png"",""x"":1064,""y"":577,""move_time"":19656},{""src"":""https://test12345.live/images/semantic_sequence/cat_care_semantic/cat_care_semantic_4.png"",""x"":1291,""y"":577,""move_time"":4806},{""src"":""https://test12345.live/images/semantic_sequence/cat_care_semantic/cat_care_semantic_5.png"",""x"":384,""y"":804,""move_time"":3692},{""src"":""https://test12345.live/images/semantic_sequence/cat_care_semantic/cat_care_semantic_7.png"",""x"":611,""y"":804,""move_time"":5361},{""src"":""https://test12345.live/images/semantic_sequence/cat_care_semantic/cat_care_semantic_8.png"",""x"":837,""y"":804,""move_time"":5516},{""src"":""https://test12345.live/images/semantic_sequence/cat_care_semantic/cat_care_semantic_9.png"",""x"":1064,""y"":804,""move_time"":4394},{""src"":""https://test12345.live/images/semantic_sequence/cat_care_semantic/cat_care_semantic_ten.png"",""x"":1291,""y"":804,""move_time"":3010}]","[{""src"":""https://test12345.live/images/semantic_sequence/cat_care_semantic/cat_care_semantic_6.png"",""x"":384,""y"":577},{""src"":""https://test12345.live/images/semantic_sequence/cat_care_semantic/cat_care_semantic_5.png"",""x"":384,""y"":804},{""src"":""https://test12345.live/images/semantic_sequence/cat_care_semantic/cat_care_semantic_1.png"",""x"":611,""y"":577},{""src"":""https://test12345.live/images/semantic_sequence/cat_care_semantic/cat_care_semantic_7.png"",""x"":611,""y"":804},{""src"":""https://test12345.live/images/semantic_sequence/cat_care_semantic/cat_care_semantic_3.png"",""x"":837,""y"":577},{""src"":""https://test12345.live/images/semantic_sequence/cat_care_semantic/cat_care_semantic_8.png"",""x"":837,""y"":804},{""src"":""https://test12345.live/images/semantic_sequence/cat_care_semantic/cat_care_semantic_2.png"",""x"":1064,""y"":577},{""src"":""https://test12345.live/images/semantic_sequence/cat_care_semantic/cat_care_semantic_9.png"",""x"":1064,""y"":804},{""src"":""https://test12345.live/images/semantic_sequence/cat_care_semantic/cat_care_semantic_4.png"",""x"":1291,""y"":577},{""src"":""https://test12345.live/images/semantic_sequence/cat_care_semantic/cat_care_semantic_ten.png"",""x"":1291,""y"":804}]","10",""
"","order","19","1633804","0.0-19.0","66D67B76D5F8499B93188B4EDE1FB69F","conditionB","","57262","[""semantic_sequence/self_care_activities_semantic/self_care_activities_semantic_5"",""semantic_sequence/self_care_activities_semantic/self_care_activities_semantic_4"",""semantic_sequence/self_care_activities_semantic/self_care_activities_semantic_2"",""semantic_sequence/self_care_activities_semantic/self_care_activities_semantic_3"",""semantic_sequence/self_care_activities_semantic/semantic_self_care_activities_semantic_9"",""semantic_sequence/self_care_activities_semantic/self_care_activities_semantic_8"",""semantic_sequence/self_care_activities_semantic/self_care_activities_semantic_6"",""semantic_sequence/self_care_activities_semantic/self_care_activities_semantic_1"",""semantic_sequence/self_care_activities_semantic/self_care_activities_semantic_9"",""semantic_sequence/self_care_activities_semantic/self_care_activities_semantic_7""]","[{""src"":""https://test12345.live/images/semantic_sequence/self_care_activities_semantic/self_care_activities_semantic_1.png"",""x"":384,""y"":577,""move_time"":7396},{""src"":""https://test12345.live/images/semantic_sequence/self_care_activities_semantic/self_care_activities_semantic_2.png"",""x"":611,""y"":577,""move_time"":4322},{""src"":""https://test12345.live/images/semantic_sequence/self_care_activities_semantic/self_care_activities_semantic_3.png"",""x"":837,""y"":577,""move_time"":4599},{""src"":""https://test12345.live/images/semantic_sequence/self_care_activities_semantic/self_care_activities_semantic_4.png"",""x"":1064,""y"":577,""move_time"":4601},{""src"":""https://test12345.live/images/semantic_sequence/self_care_activities_semantic/self_care_activities_semantic_5.png"",""x"":1291,""y"":577,""move_time"":6816},{""src"":""https://test12345.live/images/semantic_sequence/self_care_activities_semantic/self_care_activities_semantic_6.png"",""x"":384,""y"":804,""move_time"":4244},{""src"":""https://test12345.live/images/semantic_sequence/self_care_activities_semantic/self_care_activities_semantic_7.png"",""x"":611,""y"":804,""move_time"":4903},{""src"":""https://test12345.live/images/semantic_sequence/self_care_activities_semantic/self_care_activities_semantic_8.png"",""x"":837,""y"":804,""move_time"":4467},{""src"":""https://test12345.live/images/semantic_sequence/self_care_activities_semantic/self_care_activities_semantic_9.png"",""x"":1064,""y"":804,""move_time"":4816}]","[{""src"":""https://test12345.live/images/semantic_sequence/self_care_activities_semantic/self_care_activities_semantic_1.png"",""x"":384,""y"":577},{""src"":""https://test12345.live/images/semantic_sequence/self_care_activities_semantic/self_care_activities_semantic_6.png"",""x"":384,""y"":804},{""src"":""https://test12345.live/images/semantic_sequence/self_care_activities_semantic/self_care_activities_semantic_2.png"",""x"":611,""y"":577},{""src"":""https://test12345.live/images/semantic_sequence/self_care_activities_semantic/self_care_activities_semantic_7.png"",""x"":611,""y"":804},{""src"":""https://test12345.live/images/semantic_sequence/self_care_activities_semantic/self_care_activities_semantic_3.png"",""x"":837,""y"":577},{""src"":""https://test12345.live/images/semantic_sequence/self_care_activities_semantic/self_care_activities_semantic_8.png"",""x"":837,""y"":804},{""src"":""https://test12345.live/images/semantic_sequence/self_care_activities_semantic/self_care_activities_semantic_4.png"",""x"":1064,""y"":577},{""src"":""https://test12345.live/images/semantic_sequence/self_care_activities_semantic/self_care_activities_semantic_9.png"",""x"":1064,""y"":804},{""src"":""https://test12345.live/images/semantic_sequence/self_care_activities_semantic/self_care_activities_semantic_5.png"",""x"":1291,""y"":577},{""src"":""https://test12345.live/images/blank10.jpg"",""x"":1291,""y"":804}]","9",""
"","order","20","1726451","0.0-20.0","66D67B76D5F8499B93188B4EDE1FB69F","conditionB","","92646","[""schematic_sequence/hotel_scheme/hotel_scheme_8"",""schematic_sequence/hotel_scheme/hotel_scheme_ten"",""schematic_sequence/hotel_scheme/hotel_scheme_5"",""schematic_sequence/hotel_scheme/hotel_scheme_2"",""schematic_sequence/hotel_scheme/hotel_scheme_4"",""schematic_sequence/hotel_scheme/hotel_scheme_9"",""schematic_sequence/hotel_scheme/hotel_scheme_3"",""schematic_sequence/hotel_scheme/hotel_scheme_1"",""schematic_sequence/hotel_scheme/hotel_scheme_7"",""schematic_sequence/hotel_scheme/hotel_scheme_6""]","[{""src"":""https://test12345.live/images/schematic_sequence/hotel_scheme/hotel_scheme_1.png"",""x"":384,""y"":577,""move_time"":15774},{""src"":""https://test12345.live/images/schematic_sequence/hotel_scheme/hotel_scheme_2.png"",""x"":611,""y"":577,""move_time"":7875},{""src"":""https://test12345.live/images/schematic_sequence/hotel_scheme/hotel_scheme_3.png"",""x"":837,""y"":577,""move_time"":3995},{""src"":""https://test12345.live/images/schematic_sequence/hotel_scheme/hotel_scheme_4.png"",""x"":1064,""y"":577,""move_time"":4457},{""src"":""https://test12345.live/images/schematic_sequence/hotel_scheme/hotel_scheme_5.png"",""x"":1291,""y"":577,""move_time"":4504},{""src"":""https://test12345.live/images/schematic_sequence/hotel_scheme/hotel_scheme_7.png"",""x"":384,""y"":804,""move_time"":15582},{""src"":""https://test12345.live/images/schematic_sequence/hotel_scheme/hotel_scheme_8.png"",""x"":611,""y"":804,""move_time"":7951},{""src"":""https://test12345.live/images/schematic_sequence/hotel_scheme/hotel_scheme_9.png"",""x"":837,""y"":804,""move_time"":5108},{""src"":""https://test12345.live/images/schematic_sequence/hotel_scheme/hotel_scheme_9.png"",""x"":1064,""y"":804,""move_time"":12455},{""src"":""https://test12345.live/images/schematic_sequence/hotel_scheme/hotel_scheme_8.png"",""x"":837,""y"":804,""move_time"":2463},{""src"":""https://test12345.live/images/schematic_sequence/hotel_scheme/hotel_scheme_7.png"",""x"":611,""y"":804,""move_time"":2852},{""src"":""https://test12345.live/images/schematic_sequence/hotel_scheme/hotel_scheme_6.png"",""x"":384,""y"":804,""move_time"":3738},{""src"":""https://test12345.live/images/schematic_sequence/hotel_scheme/hotel_scheme_ten.png"",""x"":1291,""y"":804,""move_time"":4438}]","[{""src"":""https://test12345.live/images/schematic_sequence/hotel_scheme/hotel_scheme_1.png"",""x"":384,""y"":577},{""src"":""https://test12345.live/images/schematic_sequence/hotel_scheme/hotel_scheme_6.png"",""x"":384,""y"":804},{""src"":""https://test12345.live/images/schematic_sequence/hotel_scheme/hotel_scheme_2.png"",""x"":611,""y"":577},{""src"":""https://test12345.live/images/schematic_sequence/hotel_scheme/hotel_scheme_7.png"",""x"":611,""y"":804},{""src"":""https://test12345.live/images/schematic_sequence/hotel_scheme/hotel_scheme_3.png"",""x"":837,""y"":577},{""src"":""https://test12345.live/images/schematic_sequence/hotel_scheme/hotel_scheme_8.png"",""x"":837,""y"":804},{""src"":""https://test12345.live/images/schematic_sequence/hotel_scheme/hotel_scheme_4.png"",""x"":1064,""y"":577},{""src"":""https://test12345.live/images/schematic_sequence/hotel_scheme/hotel_scheme_9.png"",""x"":1064,""y"":804},{""src"":""https://test12345.live/images/schematic_sequence/hotel_scheme/hotel_scheme_5.png"",""x"":1291,""y"":577},{""src"":""https://test12345.live/images/schematic_sequence/hotel_scheme/hotel_scheme_ten.png"",""x"":1291,""y"":804}]","13",""
"","order","21","1780934","0.0-21.0","66D67B76D5F8499B93188B4EDE1FB69F","conditionB","","54482","[""semantic_sequence/maintaining_a_car_semantic/maintaining_a_car_semantic_7"",""semantic_sequence/maintaining_a_car_semantic/maintaining_a_car_semantic_6"",""semantic_sequence/maintaining_a_car_semantic/maintaining_a_car_semantic_2"",""semantic_sequence/maintaining_a_car_semantic/maintaining_a_car_semantic_8"",""semantic_sequence/maintaining_a_car_semantic/maintaining_a_car_semantic_1"",""semantic_sequence/maintaining_a_car_semantic/maintaining_a_car_semantic_9"",""semantic_sequence/maintaining_a_car_semantic/maintaining_a_car_semantic_3"",""semantic_sequence/maintaining_a_car_semantic/maintaining_a_car_semantic_4"",""semantic_sequence/maintaining_a_car_semantic/maintaining_a_car_semantic_5"",""semantic_sequence/maintaining_a_car_semantic/maintaining_a_car_semantic_ten""]","[{""src"":""https://test12345.live/images/semantic_sequence/maintaining_a_car_semantic/maintaining_a_car_semantic_1.png"",""x"":611,""y"":577,""move_time"":12674},{""src"":""https://test12345.live/images/semantic_sequence/maintaining_a_car_semantic/maintaining_a_car_semantic_1.png"",""x"":384,""y"":577,""move_time"":2122},{""src"":""https://test12345.live/images/semantic_sequence/maintaining_a_car_semantic/maintaining_a_car_semantic_2.png"",""x"":611,""y"":577,""move_time"":6305},{""src"":""https://test12345.live/images/semantic_sequence/maintaining_a_car_semantic/maintaining_a_car_semantic_3.png"",""x"":837,""y"":577,""move_time"":4099},{""src"":""https://test12345.live/images/semantic_sequence/maintaining_a_car_semantic/maintaining_a_car_semantic_4.png"",""x"":1064,""y"":577,""move_time"":3313},{""src"":""https://test12345.live/images/semantic_sequence/maintaining_a_car_semantic/maintaining_a_car_semantic_5.png"",""x"":1291,""y"":577,""move_time"":2908},{""src"":""https://test12345.live/images/semantic_sequence/maintaining_a_car_semantic/maintaining_a_car_semantic_6.png"",""x"":384,""y"":804,""move_time"":5291},{""src"":""https://test12345.live/images/semantic_sequence/maintaining_a_car_semantic/maintaining_a_car_semantic_7.png"",""x"":611,""y"":804,""move_time"":4892},{""src"":""https://test12345.live/images/semantic_sequence/maintaining_a_car_semantic/maintaining_a_car_semantic_8.png"",""x"":837,""y"":804,""move_time"":4227},{""src"":""https://test12345.live/images/semantic_sequence/maintaining_a_car_semantic/maintaining_a_car_semantic_9.png"",""x"":1064,""y"":804,""move_time"":3227},{""src"":""https://test12345.live/images/semantic_sequence/maintaining_a_car_semantic/maintaining_a_car_semantic_ten.png"",""x"":1291,""y"":804,""move_time"":3756}]","[{""src"":""https://test12345.live/images/semantic_sequence/maintaining_a_car_semantic/maintaining_a_car_semantic_1.png"",""x"":384,""y"":577},{""src"":""https://test12345.live/images/semantic_sequence/maintaining_a_car_semantic/maintaining_a_car_semantic_6.png"",""x"":384,""y"":804},{""src"":""https://test12345.live/images/semantic_sequence/maintaining_a_car_semantic/maintaining_a_car_semantic_2.png"",""x"":611,""y"":577},{""src"":""https://test12345.live/images/semantic_sequence/maintaining_a_car_semantic/maintaining_a_car_semantic_7.png"",""x"":611,""y"":804},{""src"":""https://test12345.live/images/semantic_sequence/maintaining_a_car_semantic/maintaining_a_car_semantic_3.png"",""x"":837,""y"":577},{""src"":""https://test12345.live/images/semantic_sequence/maintaining_a_car_semantic/maintaining_a_car_semantic_8.png"",""x"":837,""y"":804},{""src"":""https://test12345.live/images/semantic_sequence/maintaining_a_car_semantic/maintaining_a_car_semantic_4.png"",""x"":1064,""y"":577},{""src"":""https://test12345.live/images/semantic_sequence/maintaining_a_car_semantic/maintaining_a_car_semantic_9.png"",""x"":1064,""y"":804},{""src"":""https://test12345.live/images/semantic_sequence/maintaining_a_car_semantic/maintaining_a_car_semantic_5.png"",""x"":1291,""y"":577},{""src"":""https://test12345.live/images/semantic_sequence/maintaining_a_car_semantic/maintaining_a_car_semantic_ten.png"",""x"":1291,""y"":804}]","11",""
"","order","22","1859219","0.0-22.0","66D67B76D5F8499B93188B4EDE1FB69F","conditionB","","78285","[""schematic_sequence/supermarket_scheme/supermarket_scheme_ten"",""schematic_sequence/supermarket_scheme/supermarket_scheme_5"",""schematic_sequence/supermarket_scheme/supermarket_scheme_2"",""schematic_sequence/supermarket_scheme/supermarket_scheme_4"",""schematic_sequence/supermarket_scheme/supermarket_scheme_9"",""schematic_sequence/supermarket_scheme/supermarket_scheme_1"",""schematic_sequence/supermarket_scheme/supermarket_scheme_6"",""schematic_sequence/supermarket_scheme/supermarket_scheme_3"",""schematic_sequence/supermarket_scheme/supermarket_scheme_7"",""schematic_sequence/supermarket_scheme/supermarket_scheme_8""]","[{""src"":""https://test12345.live/images/schematic_sequence/supermarket_scheme/supermarket_scheme_1.png"",""x"":384,""y"":577,""move_time"":16954},{""src"":""https://test12345.live/images/schematic_sequence/supermarket_scheme/supermarket_scheme_2.png"",""x"":611,""y"":577,""move_time"":4254},{""src"":""https://test12345.live/images/schematic_sequence/supermarket_scheme/supermarket_scheme_3.png"",""x"":837,""y"":577,""move_time"":2976},{""src"":""https://test12345.live/images/schematic_sequence/supermarket_scheme/supermarket_scheme_4.png"",""x"":1064,""y"":577,""move_time"":6587},{""src"":""https://test12345.live/images/schematic_sequence/supermarket_scheme/supermarket_scheme_5.png"",""x"":1291,""y"":577,""move_time"":4584},{""src"":""https://test12345.live/images/schematic_sequence/supermarket_scheme/supermarket_scheme_6.png"",""x"":384,""y"":804,""move_time"":8395},{""src"":""https://test12345.live/images/schematic_sequence/supermarket_scheme/supermarket_scheme_7.png"",""x"":611,""y"":804,""move_time"":4023},{""src"":""https://test12345.live/images/schematic_sequence/supermarket_scheme/supermarket_scheme_8.png"",""x"":837,""y"":804,""move_time"":2406},{""src"":""https://test12345.live/images/schematic_sequence/supermarket_scheme/supermarket_scheme_9.png"",""x"":1291,""y"":577,""move_time"":3246},{""src"":""https://test12345.live/images/schematic_sequence/supermarket_scheme/supermarket_scheme_4.png"",""x"":1064,""y"":804,""move_time"":533},{""src"":""https://test12345.live/images/schematic_sequence/supermarket_scheme/supermarket_scheme_4.png"",""x"":1064,""y"":577,""move_time"":4534},{""src"":""https://test12345.live/images/schematic_sequence/supermarket_scheme/supermarket_scheme_9.png"",""x"":1064,""y"":804,""move_time"":5915},{""src"":""https://test12345.live/images/schematic_sequence/supermarket_scheme/supermarket_scheme_5.png"",""x"":1291,""y"":577,""move_time"":2350},{""src"":""https://test12345.live/images/schematic_sequence/supermarket_scheme/supermarket_scheme_ten.png"",""x"":1291,""y"":804,""move_time"":4552}]","[{""src"":""https://test12345.live/images/schematic_sequence/supermarket_scheme/supermarket_scheme_1.png"",""x"":384,""y"":577},{""src"":""https://test12345.live/images/schematic_sequence/supermarket_scheme/supermarket_scheme_6.png"",""x"":384,""y"":804},{""src"":""https://test12345.live/images/schematic_sequence/supermarket_scheme/supermarket_scheme_2.png"",""x"":611,""y"":577},{""src"":""https://test12345.live/images/schematic_sequence/supermarket_scheme/supermarket_scheme_7.png"",""x"":611,""y"":804},{""src"":""https://test12345.live/images/schematic_sequence/supermarket_scheme/supermarket_scheme_3.png"",""x"":837,""y"":577},{""src"":""https://test12345.live/images/schematic_sequence/supermarket_scheme/supermarket_scheme_8.png"",""x"":837,""y"":804},{""src"":""https://test12345.live/images/schematic_sequence/supermarket_scheme/supermarket_scheme_4.png"",""x"":1064,""y"":577},{""src"":""https://test12345.live/images/schematic_sequence/supermarket_scheme/supermarket_scheme_9.png"",""x"":1064,""y"":804},{""src"":""https://test12345.live/images/schematic_sequence/supermarket_scheme/supermarket_scheme_5.png"",""x"":1291,""y"":577},{""src"":""https://test12345.live/images/schematic_sequence/supermarket_scheme/supermarket_scheme_ten.png"",""x"":1291,""y"":804}]","14",""
"","order","23","1942553","0.0-23.0","66D67B76D5F8499B93188B4EDE1FB69F","conditionB","","83333","[""causal_sequence/the_performance_causal/the_performance_causal_7"",""causal_sequence/the_performance_causal/the_performance_causal_4"",""causal_sequence/the_performance_causal/the_performance_causal_3"",""causal_sequence/the_performance_causal/the_performance_causal_2"",""causal_sequence/the_performance_causal/the_performance_causal_9"",""causal_sequence/the_performance_causal/the_performance_causal_6"",""causal_sequence/the_performance_causal/the_performance_causal_8"",""causal_sequence/the_performance_causal/the_performance_causal_5"",""causal_sequence/the_performance_causal/the_performance_causal_ten"",""causal_sequence/the_performance_causal/the_performance_causal_1""]","[{""src"":""https://test12345.live/images/causal_sequence/the_performance_causal/the_performance_causal_1.png"",""x"":611,""y"":577,""move_time"":19984},{""src"":""https://test12345.live/images/causal_sequence/the_performance_causal/the_performance_causal_1.png"",""x"":384,""y"":577,""move_time"":1767},{""src"":""https://test12345.live/images/causal_sequence/the_performance_causal/the_performance_causal_3.png"",""x"":611,""y"":577,""move_time"":10368},{""src"":""https://test12345.live/images/causal_sequence/the_performance_causal/the_performance_causal_4.png"",""x"":837,""y"":577,""move_time"":9536},{""src"":""https://test12345.live/images/causal_sequence/the_performance_causal/the_performance_causal_5.png"",""x"":1064,""y"":577,""move_time"":4562},{""src"":""https://test12345.live/images/causal_sequence/the_performance_causal/the_performance_causal_5.png"",""x"":1291,""y"":577,""move_time"":7096},{""src"":""https://test12345.live/images/causal_sequence/the_performance_causal/the_performance_causal_4.png"",""x"":1064,""y"":577,""move_time"":1927},{""src"":""https://test12345.live/images/causal_sequence/the_performance_causal/the_performance_causal_3.png"",""x"":837,""y"":577,""move_time"":1871},{""src"":""https://test12345.live/images/causal_sequence/the_performance_causal/the_performance_causal_2.png"",""x"":611,""y"":577,""move_time"":3331},{""src"":""https://test12345.live/images/causal_sequence/the_performance_causal/the_performance_causal_6.png"",""x"":384,""y"":804,""move_time"":5470},{""src"":""https://test12345.live/images/causal_sequence/the_performance_causal/the_performance_causal_7.png"",""x"":611,""y"":804,""move_time"":5407},{""src"":""https://test12345.live/images/causal_sequence/the_performance_causal/the_performance_causal_8.png"",""x"":837,""y"":804,""move_time"":4790},{""src"":""https://test12345.live/images/causal_sequence/the_performance_causal/the_performance_causal_9.png"",""x"":1064,""y"":804,""move_time"":3210},{""src"":""https://test12345.live/images/causal_sequence/the_performance_causal/the_performance_causal_ten.png"",""x"":1291,""y"":804,""move_time"":2312}]","[{""src"":""https://test12345.live/images/causal_sequence/the_performance_causal/the_performance_causal_1.png"",""x"":384,""y"":577},{""src"":""https://test12345.live/images/causal_sequence/the_performance_causal/the_performance_causal_6.png"",""x"":384,""y"":804},{""src"":""https://test12345.live/images/causal_sequence/the_performance_causal/the_performance_causal_2.png"",""x"":611,""y"":577},{""src"":""https://test12345.live/images/causal_sequence/the_performance_causal/the_performance_causal_7.png"",""x"":611,""y"":804},{""src"":""https://test12345.live/images/causal_sequence/the_performance_causal/the_performance_causal_3.png"",""x"":837,""y"":577},{""src"":""https://test12345.live/images/causal_sequence/the_performance_causal/the_performance_causal_8.png"",""x"":837,""y"":804},{""src"":""https://test12345.live/images/causal_sequence/the_performance_causal/the_performance_causal_4.png"",""x"":1064,""y"":577},{""src"":""https://test12345.live/images/causal_sequence/the_performance_causal/the_performance_causal_9.png"",""x"":1064,""y"":804},{""src"":""https://test12345.live/images/causal_sequence/the_performance_causal/the_performance_causal_5.png"",""x"":1291,""y"":577},{""src"":""https://test12345.live/images/causal_sequence/the_performance_causal/the_performance_causal_ten.png"",""x"":1291,""y"":804}]","14",""
"","order","24","2054931","0.0-24.0","66D67B76D5F8499B93188B4EDE1FB69F","conditionB","","111151","[""semantic_sequence/redecorating_a_house_semantic/redecorating_a_house_semantic_4"",""semantic_sequence/redecorating_a_house_semantic/redecorating_a_house_semantic_2"",""semantic_sequence/redecorating_a_house_semantic/redecorating_a_house_semantic_ten"",""semantic_sequence/redecorating_a_house_semantic/redecorating_a_house_semantic_5"",""semantic_sequence/redecorating_a_house_semantic/redecorating_a_house_semantic_6"",""semantic_sequence/redecorating_a_house_semantic/redecorating_a_house_semantic_1"",""semantic_sequence/redecorating_a_house_semantic/redecorating_a_house_semantic_7"",""semantic_sequence/redecorating_a_house_semantic/redecorating_a_house_semantic_3"",""semantic_sequence/redecorating_a_house_semantic/redecorating_a_house_semantic_9"",""semantic_sequence/redecorating_a_house_semantic/redecorating_a_house_semantic_8""]","[{""src"":""https://test12345.live/images/semantic_sequence/redecorating_a_house_semantic/redecorating_a_house_semantic_ten.png"",""x"":384,""y"":577,""move_time"":21045},{""src"":""https://test12345.live/images/semantic_sequence/redecorating_a_house_semantic/redecorating_a_house_semantic_1.png"",""x"":611,""y"":577,""move_time"":2097},{""src"":""https://test12345.live/images/semantic_sequence/redecorating_a_house_semantic/redecorating_a_house_semantic_5.png"",""x"":837,""y"":577,""move_time"":4467},{""src"":""https://test12345.live/images/semantic_sequence/redecorating_a_house_semantic/redecorating_a_house_semantic_2.png"",""x"":1064,""y"":577,""move_time"":10991},{""src"":""https://test12345.live/images/semantic_sequence/redecorating_a_house_semantic/redecorating_a_house_semantic_4.png"",""x"":1064,""y"":305,""move_time"":3109},{""src"":""https://test12345.live/images/semantic_sequence/redecorating_a_house_semantic/redecorating_a_house_semantic_4.png"",""x"":1064,""y"":305,""move_time"":5300},{""src"":""https://test12345.live/images/semantic_sequence/redecorating_a_house_semantic/redecorating_a_house_semantic_2.png"",""x"":1291,""y"":577,""move_time"":3032},{""src"":""https://test12345.live/images/semantic_sequence/redecorating_a_house_semantic/redecorating_a_house_semantic_9.png"",""x"":1064,""y"":577,""move_time"":4418},{""src"":""https://test12345.live/images/semantic_sequence/redecorating_a_house_semantic/redecorating_a_house_semantic_6.png"",""x"":384,""y"":804,""move_time"":12659},{""src"":""https://test12345.live/images/semantic_sequence/redecorating_a_house_semantic/redecorating_a_house_semantic_6.png"",""x"":611,""y"":804,""move_time"":3771},{""src"":""https://test12345.live/images/semantic_sequence/redecorating_a_house_semantic/redecorating_a_house_semantic_1.png"",""x"":384,""y"":577,""move_time"":5735},{""src"":""https://test12345.live/images/semantic_sequence/redecorating_a_house_semantic/redecorating_a_house_semantic_2.png"",""x"":611,""y"":577,""move_time"":4231},{""src"":""https://test12345.live/images/semantic_sequence/redecorating_a_house_semantic/redecorating_a_house_semantic_3.png"",""x"":837,""y"":577,""move_time"":4051},{""src"":""https://test12345.live/images/semantic_sequence/redecorating_a_house_semantic/redecorating_a_house_semantic_4.png"",""x"":1064,""y"":577,""move_time"":2835},{""src"":""https://test12345.live/images/semantic_sequence/redecorating_a_house_semantic/redecorating_a_house_semantic_5.png"",""x"":1291,""y"":577,""move_time"":4484},{""src"":""https://test12345.live/images/semantic_sequence/redecorating_a_house_semantic/redecorating_a_house_semantic_6.png"",""x"":384,""y"":804,""move_time"":2603},{""src"":""https://test12345.live/images/semantic_sequence/redecorating_a_house_semantic/redecorating_a_house_semantic_7.png"",""x"":611,""y"":804,""move_time"":4223},{""src"":""https://test12345.live/images/semantic_sequence/redecorating_a_house_semantic/redecorating_a_house_semantic_8.png"",""x"":837,""y"":804,""move_time"":3440},{""src"":""https://test12345.live/images/semantic_sequence/redecorating_a_house_semantic/redecorating_a_house_semantic_9.png"",""x"":1064,""y"":804,""move_time"":4684},{""src"":""https://test12345.live/images/semantic_sequence/redecorating_a_house_semantic/redecorating_a_house_semantic_ten.png"",""x"":1291,""y"":804,""move_time"":2543}]","[{""src"":""https://test12345.live/images/semantic_sequence/redecorating_a_house_semantic/redecorating_a_house_semantic_1.png"",""x"":384,""y"":577},{""src"":""https://test12345.live/images/semantic_sequence/redecorating_a_house_semantic/redecorating_a_house_semantic_6.png"",""x"":384,""y"":804},{""src"":""https://test12345.live/images/semantic_sequence/redecorating_a_house_semantic/redecorating_a_house_semantic_2.png"",""x"":611,""y"":577},{""src"":""https://test12345.live/images/semantic_sequence/redecorating_a_house_semantic/redecorating_a_house_semantic_7.png"",""x"":611,""y"":804},{""src"":""https://test12345.live/images/semantic_sequence/redecorating_a_house_semantic/redecorating_a_house_semantic_3.png"",""x"":837,""y"":577},{""src"":""https://test12345.live/images/semantic_sequence/redecorating_a_house_semantic/redecorating_a_house_semantic_8.png"",""x"":837,""y"":804},{""src"":""https://test12345.live/images/semantic_sequence/redecorating_a_house_semantic/redecorating_a_house_semantic_4.png"",""x"":1064,""y"":577},{""src"":""https://test12345.live/images/semantic_sequence/redecorating_a_house_semantic/redecorating_a_house_semantic_9.png"",""x"":1064,""y"":804},{""src"":""https://test12345.live/images/semantic_sequence/redecorating_a_house_semantic/redecorating_a_house_semantic_5.png"",""x"":1291,""y"":577},{""src"":""https://test12345.live/images/semantic_sequence/redecorating_a_house_semantic/redecorating_a_house_semantic_ten.png"",""x"":1291,""y"":804}]","20",""
"","order","25","2138915","0.0-25.0","66D67B76D5F8499B93188B4EDE1FB69F","conditionB","","83984","[""semantic_sequence/market_semantic/market_semantic_2"",""semantic_sequence/market_semantic/market_semantic_1"",""semantic_sequence/market_semantic/market_semantic_7"",""semantic_sequence/market_semantic/market_semantic_4"",""semantic_sequence/market_semantic/market_semantic_3"",""semantic_sequence/market_semantic/market_semantic_5"",""semantic_sequence/market_semantic/market_semantic_9"",""semantic_sequence/market_semantic/market_semantic_6"",""semantic_sequence/market_semantic/market_semantic_ten"",""semantic_sequence/market_semantic/market_semantic_8""]","[{""src"":""https://test12345.live/images/semantic_sequence/market_semantic/market_semantic_1.png"",""x"":384,""y"":577,""move_time"":32631},{""src"":""https://test12345.live/images/semantic_sequence/market_semantic/market_semantic_2.png"",""x"":611,""y"":577,""move_time"":7965},{""src"":""https://test12345.live/images/semantic_sequence/market_semantic/market_semantic_3.png"",""x"":837,""y"":577,""move_time"":5317},{""src"":""https://test12345.live/images/semantic_sequence/market_semantic/market_semantic_4.png"",""x"":1064,""y"":577,""move_time"":4215},{""src"":""https://test12345.live/images/semantic_sequence/market_semantic/market_semantic_5.png"",""x"":1291,""y"":577,""move_time"":5390},{""src"":""https://test12345.live/images/semantic_sequence/market_semantic/market_semantic_6.png"",""x"":384,""y"":804,""move_time"":5366},{""src"":""https://test12345.live/images/semantic_sequence/market_semantic/market_semantic_7.png"",""x"":611,""y"":804,""move_time"":4843},{""src"":""https://test12345.live/images/semantic_sequence/market_semantic/market_semantic_8.png"",""x"":837,""y"":804,""move_time"":3891},{""src"":""https://test12345.live/images/semantic_sequence/market_semantic/market_semantic_9.png"",""x"":1064,""y"":804,""move_time"":3871},{""src"":""https://test12345.live/images/semantic_sequence/market_semantic/market_semantic_ten.png"",""x"":1291,""y"":577,""move_time"":1939},{""src"":""https://test12345.live/images/semantic_sequence/market_semantic/market_semantic_ten.png"",""x"":1291,""y"":804,""move_time"":3007},{""src"":""https://test12345.live/images/semantic_sequence/market_semantic/market_semantic_5.png"",""x"":1291,""y"":577,""move_time"":4256}]","[{""src"":""https://test12345.live/images/semantic_sequence/market_semantic/market_semantic_1.png"",""x"":384,""y"":577},{""src"":""https://test12345.live/images/semantic_sequence/market_semantic/market_semantic_6.png"",""x"":384,""y"":804},{""src"":""https://test12345.live/images/semantic_sequence/market_semantic/market_semantic_2.png"",""x"":611,""y"":577},{""src"":""https://test12345.live/images/semantic_sequence/market_semantic/market_semantic_7.png"",""x"":611,""y"":804},{""src"":""https://test12345.live/images/semantic_sequence/market_semantic/market_semantic_3.png"",""x"":837,""y"":577},{""src"":""https://test12345.live/images/semantic_sequence/market_semantic/market_semantic_8.png"",""x"":837,""y"":804},{""src"":""https://test12345.live/images/semantic_sequence/market_semantic/market_semantic_4.png"",""x"":1064,""y"":577},{""src"":""https://test12345.live/images/semantic_sequence/market_semantic/market_semantic_9.png"",""x"":1064,""y"":804},{""src"":""https://test12345.live/images/semantic_sequence/market_semantic/market_semantic_5.png"",""x"":1291,""y"":577},{""src"":""https://test12345.live/images/semantic_sequence/market_semantic/market_semantic_ten.png"",""x"":1291,""y"":804}]","12",""
"","order","26","2143805","0.0-26.0","66D67B76D5F8499B93188B4EDE1FB69F","conditionB","","4889","[""semantic_sequence/exploring_nature_semantic/exploring_nature_semantic_7"",""semantic_sequence/exploring_nature_semantic/exploring_nature_semantic_8"",""semantic_sequence/exploring_nature_semantic/exploring_nature_semantic_ten"",""semantic_sequence/exploring_nature_semantic/exploring_nature_semantic_6"",""semantic_sequence/exploring_nature_semantic/exploring_nature_semantic_1"",""semantic_sequence/exploring_nature_semantic/exploring_nature_semantic_5"",""semantic_sequence/exploring_nature_semantic/exploring_nature_semantic_3"",""semantic_sequence/exploring_nature_semantic/exploring_nature_semantic_9"",""semantic_sequence/exploring_nature_semantic/exploring_nature_semantic_4"",""semantic_sequence/exploring_nature_semantic/exploring_nature_semantic_2""]","[]","[{""src"":""https://test12345.live/images/blank1.jpg"",""x"":384,""y"":353},{""src"":""https://test12345.live/images/blank6.jpg"",""x"":384,""y"":579},{""src"":""https://test12345.live/images/blank2.jpg"",""x"":611,""y"":353},{""src"":""https://test12345.live/images/blank7.jpg"",""x"":611,""y"":579},{""src"":""https://test12345.live/images/blank3.jpg"",""x"":837,""y"":353},{""src"":""https://test12345.live/images/blank8.jpg"",""x"":837,""y"":579},{""src"":""https://test12345.live/images/blank4.jpg"",""x"":1064,""y"":353},{""src"":""https://test12345.live/images/blank9.jpg"",""x"":1064,""y"":579},{""src"":""https://test12345.live/images/blank5.jpg"",""x"":1291,""y"":353},{""src"":""https://test12345.live/images/blank10.jpg"",""x"":1291,""y"":579}]","0",""
"","order","27","2218334","0.0-27.0","66D67B76D5F8499B93188B4EDE1FB69F","conditionB","","74528","[""causal_sequence/dog_causal/dog_causal_4"",""causal_sequence/dog_causal/dog_causal_7"",""causal_sequence/dog_causal/dog_causal_3"",""causal_sequence/dog_causal/dog_causal_6"",""causal_sequence/dog_causal/dog_causal_ten"",""causal_sequence/dog_causal/dog_causal_2"",""causal_sequence/dog_causal/dog_causal_1"",""causal_sequence/dog_causal/dog_causal_5"",""causal_sequence/dog_causal/dog_causal_8"",""causal_sequence/dog_causal/dog_causal_9""]","[{""src"":""https://test12345.live/images/causal_sequence/dog_causal/dog_causal_2.png"",""x"":384,""y"":577,""move_time"":18497},{""src"":""https://test12345.live/images/causal_sequence/dog_causal/dog_causal_3.png"",""x"":611,""y"":577,""move_time"":5884},{""src"":""https://test12345.live/images/causal_sequence/dog_causal/dog_causal_3.png"",""x"":837,""y"":577,""move_time"":8390},{""src"":""https://test12345.live/images/causal_sequence/dog_causal/dog_causal_2.png"",""x"":611,""y"":577,""move_time"":1932},{""src"":""https://test12345.live/images/causal_sequence/dog_causal/dog_causal_1.png"",""x"":384,""y"":577,""move_time"":1793},{""src"":""https://test12345.live/images/causal_sequence/dog_causal/dog_causal_4.png"",""x"":1064,""y"":577,""move_time"":6904},{""src"":""https://test12345.live/images/causal_sequence/dog_causal/dog_causal_5.png"",""x"":1291,""y"":577,""move_time"":4760},{""src"":""https://test12345.live/images/causal_sequence/dog_causal/dog_causal_6.png"",""x"":384,""y"":804,""move_time"":6853},{""src"":""https://test12345.live/images/causal_sequence/dog_causal/dog_causal_7.png"",""x"":611,""y"":804,""move_time"":7279},{""src"":""https://test12345.live/images/causal_sequence/dog_causal/dog_causal_8.png"",""x"":837,""y"":804,""move_time"":3568},{""src"":""https://test12345.live/images/causal_sequence/dog_causal/dog_causal_9.png"",""x"":1064,""y"":804,""move_time"":3596},{""src"":""https://test12345.live/images/causal_sequence/dog_causal/dog_causal_ten.png"",""x"":1291,""y"":804,""move_time"":3684}]","[{""src"":""https://test12345.live/images/causal_sequence/dog_causal/dog_causal_1.png"",""x"":384,""y"":577},{""src"":""https://test12345.live/images/causal_sequence/dog_causal/dog_causal_6.png"",""x"":384,""y"":804},{""src"":""https://test12345.live/images/causal_sequence/dog_causal/dog_causal_2.png"",""x"":611,""y"":577},{""src"":""https://test12345.live/images/causal_sequence/dog_causal/dog_causal_7.png"",""x"":611,""y"":804},{""src"":""https://test12345.live/images/causal_sequence/dog_causal/dog_causal_3.png"",""x"":837,""y"":577},{""src"":""https://test12345.live/images/causal_sequence/dog_causal/dog_causal_8.png"",""x"":837,""y"":804},{""src"":""https://test12345.live/images/causal_sequence/dog_causal/dog_causal_4.png"",""x"":1064,""y"":577},{""src"":""https://test12345.live/images/causal_sequence/dog_causal/dog_causal_9.png"",""x"":1064,""y"":804},{""src"":""https://test12345.live/images/causal_sequence/dog_causal/dog_causal_5.png"",""x"":1291,""y"":577},{""src"":""https://test12345.live/images/causal_sequence/dog_causal/dog_causal_ten.png"",""x"":1291,""y"":804}]","12",""
"","survey-text","28","2222849","0.0-28.0","66D67B76D5F8499B93188B4EDE1FB69F","conditionB","","4343.0999999940395","","","","","{""Q0"":""49""}"
"","survey-text","29","2230366","0.0-29.0","66D67B76D5F8499B93188B4EDE1FB69F","conditionB","","7514.5","","","","","{""Q0"":""Female""}"
"","instructions","30","2238405","0.0-30.0","66D67B76D5F8499B93188B4EDE1FB69F","conditionB","[{""page_index"":0,""viewing_time"":8036.600000008941}]","8036.9000000059605","","","","",""
