"success","trial_type","trial_index","time_elapsed","internal_node_id","subject","condition","view_history","rt","initial_locations","moves","final_locations_3","number_of_moves","responses"
"true","fullscreen","0","20473","0.0-0.0","68DFEC98E3FC47878C5DAB911D0DFA18","conditionB","","","","","","",""
"","instructions","1","50988","0.0-1.0","68DFEC98E3FC47878C5DAB911D0DFA18","conditionB","[{""page_index"":0,""viewing_time"":1388.800000011921},{""page_index"":1,""viewing_time"":5295.900000035763},{""page_index"":2,""viewing_time"":2608.099999964237},{""page_index"":3,""viewing_time"":19490.100000023842},{""page_index"":4,""viewing_time"":1731.699999988079}]","30515","","","","",""
"","order","2","67488","0.0-2.0","68DFEC98E3FC47878C5DAB911D0DFA18","conditionB","","16499","[""instructions/movie_4"",""instructions/movie_3"",""instructions/movie_2"",""instructions/movie_1"",""blank"",""blank"",""blank"",""blank"",""blank"",""blank""]","[{""src"":""https://test12345.live/images/instructions/movie_1.png"",""x"":307,""y"":469,""move_time"":10779},{""src"":""https://test12345.live/images/instructions/movie_2.png"",""x"":489,""y"":469,""move_time"":1707},{""src"":""https://test12345.live/images/instructions/movie_3.png"",""x"":670,""y"":469,""move_time"":1562},{""src"":""https://test12345.live/images/instructions/movie_4.png"",""x"":851,""y"":469,""move_time"":1609}]","[{""src"":""https://test12345.live/images/instructions/movie_1.png"",""x"":307,""y"":469},{""src"":""https://test12345.live/images/blank6.jpg"",""x"":307,""y"":650},{""src"":""https://test12345.live/images/instructions/movie_2.png"",""x"":489,""y"":469},{""src"":""https://test12345.live/images/blank7.jpg"",""x"":489,""y"":650},{""src"":""https://test12345.live/images/instructions/movie_3.png"",""x"":670,""y"":469},{""src"":""https://test12345.live/images/blank8.jpg"",""x"":670,""y"":650},{""src"":""https://test12345.live/images/instructions/movie_4.png"",""x"":851,""y"":469},{""src"":""https://test12345.live/images/blank9.jpg"",""x"":851,""y"":650},{""src"":""https://test12345.live/images/blank5.jpg"",""x"":1032,""y"":469},{""src"":""https://test12345.live/images/blank10.jpg"",""x"":1032,""y"":650}]","4",""
"","instructions","3","69151","0.0-3.0","68DFEC98E3FC47878C5DAB911D0DFA18","conditionB","[{""page_index"":0,""viewing_time"":1662}]","1662.199999988079","","","","",""
"","order","4","122246","0.0-4.0","68DFEC98E3FC47878C5DAB911D0DFA18","conditionB","","53095","[""semantic_sequence/creative_activities_semantic/creative_activities_semantic_4"",""semantic_sequence/creative_activities_semantic/creative_activities_semantic_8"",""semantic_sequence/creative_activities_semantic/creative_activities_semantic_1"",""semantic_sequence/creative_activities_semantic/creative_activities_semantic_ten"",""semantic_sequence/creative_activities_semantic/creative_activities_semantic_3"",""semantic_sequence/creative_activities_semantic/creative_activities_semantic_6"",""semantic_sequence/creative_activities_semantic/creative_activities_semantic_9"",""semantic_sequence/creative_activities_semantic/creative_activities_semantic_5"",""semantic_sequence/creative_activities_semantic/creative_activities_semantic_2"",""semantic_sequence/creative_activities_semantic/creative_activities_semantic_7""]","[{""src"":""https://test12345.live/images/semantic_sequence/creative_activities_semantic/creative_activities_semantic_4.png"",""x"":307,""y"":469,""move_time"":20611},{""src"":""https://test12345.live/images/semantic_sequence/creative_activities_semantic/creative_activities_semantic_2.png"",""x"":489,""y"":469,""move_time"":5511},{""src"":""https://test12345.live/images/semantic_sequence/creative_activities_semantic/creative_activities_semantic_3.png"",""x"":670,""y"":469,""move_time"":3639},{""src"":""https://test12345.live/images/semantic_sequence/creative_activities_semantic/creative_activities_semantic_6.png"",""x"":851,""y"":469,""move_time"":5048},{""src"":""https://test12345.live/images/semantic_sequence/creative_activities_semantic/creative_activities_semantic_5.png"",""x"":1032,""y"":469,""move_time"":3431},{""src"":""https://test12345.live/images/semantic_sequence/creative_activities_semantic/creative_activities_semantic_7.png"",""x"":307,""y"":650,""move_time"":4549},{""src"":""https://test12345.live/images/semantic_sequence/creative_activities_semantic/creative_activities_semantic_8.png"",""x"":489,""y"":650,""move_time"":3770},{""src"":""https://test12345.live/images/semantic_sequence/creative_activities_semantic/creative_activities_semantic_ten.png"",""x"":670,""y"":650,""move_time"":1770},{""src"":""https://test12345.live/images/semantic_sequence/creative_activities_semantic/creative_activities_semantic_1.png"",""x"":851,""y"":650,""move_time"":1557},{""src"":""https://test12345.live/images/semantic_sequence/creative_activities_semantic/creative_activities_semantic_9.png"",""x"":1032,""y"":650,""move_time"":1845}]","[{""src"":""https://test12345.live/images/semantic_sequence/creative_activities_semantic/creative_activities_semantic_4.png"",""x"":307,""y"":469},{""src"":""https://test12345.live/images/semantic_sequence/creative_activities_semantic/creative_activities_semantic_7.png"",""x"":307,""y"":650},{""src"":""https://test12345.live/images/semantic_sequence/creative_activities_semantic/creative_activities_semantic_2.png"",""x"":489,""y"":469},{""src"":""https://test12345.live/images/semantic_sequence/creative_activities_semantic/creative_activities_semantic_8.png"",""x"":489,""y"":650},{""src"":""https://test12345.live/images/semantic_sequence/creative_activities_semantic/creative_activities_semantic_3.png"",""x"":670,""y"":469},{""src"":""https://test12345.live/images/semantic_sequence/creative_activities_semantic/creative_activities_semantic_ten.png"",""x"":670,""y"":650},{""src"":""https://test12345.live/images/semantic_sequence/creative_activities_semantic/creative_activities_semantic_6.png"",""x"":851,""y"":469},{""src"":""https://test12345.live/images/semantic_sequence/creative_activities_semantic/creative_activities_semantic_1.png"",""x"":851,""y"":650},{""src"":""https://test12345.live/images/semantic_sequence/creative_activities_semantic/creative_activities_semantic_5.png"",""x"":1032,""y"":469},{""src"":""https://test12345.live/images/semantic_sequence/creative_activities_semantic/creative_activities_semantic_9.png"",""x"":1032,""y"":650}]","10",""
"","order","5","159302","0.0-5.0","68DFEC98E3FC47878C5DAB911D0DFA18","conditionB","","37055","[""schematic_sequence/restaurant_scheme/restaurant_scheme_2"",""schematic_sequence/restaurant_scheme/restaurant_scheme_8"",""schematic_sequence/restaurant_scheme/restaurant_scheme_1"",""schematic_sequence/restaurant_scheme/restaurant_scheme_6"",""schematic_sequence/restaurant_scheme/restaurant_scheme_3"",""schematic_sequence/restaurant_scheme/restaurant_scheme_9"",""schematic_sequence/restaurant_scheme/restaurant_scheme_ten"",""schematic_sequence/restaurant_scheme/restaurant_scheme_7"",""schematic_sequence/restaurant_scheme/restaurant_scheme_5"",""schematic_sequence/restaurant_scheme/restaurant_scheme_4""]","[{""src"":""https://test12345.live/images/schematic_sequence/restaurant_scheme/restaurant_scheme_ten.png"",""x"":1032,""y"":650,""move_time"":7580},{""src"":""https://test12345.live/images/schematic_sequence/restaurant_scheme/restaurant_scheme_1.png"",""x"":307,""y"":469,""move_time"":6018},{""src"":""https://test12345.live/images/schematic_sequence/restaurant_scheme/restaurant_scheme_2.png"",""x"":489,""y"":469,""move_time"":2457},{""src"":""https://test12345.live/images/schematic_sequence/restaurant_scheme/restaurant_scheme_3.png"",""x"":670,""y"":469,""move_time"":1977},{""src"":""https://test12345.live/images/schematic_sequence/restaurant_scheme/restaurant_scheme_9.png"",""x"":851,""y"":650,""move_time"":3400},{""src"":""https://test12345.live/images/schematic_sequence/restaurant_scheme/restaurant_scheme_4.png"",""x"":851,""y"":469,""move_time"":3681},{""src"":""https://test12345.live/images/schematic_sequence/restaurant_scheme/restaurant_scheme_5.png"",""x"":1032,""y"":469,""move_time"":5286},{""src"":""https://test12345.live/images/schematic_sequence/restaurant_scheme/restaurant_scheme_6.png"",""x"":307,""y"":650,""move_time"":2116},{""src"":""https://test12345.live/images/schematic_sequence/restaurant_scheme/restaurant_scheme_7.png"",""x"":489,""y"":650,""move_time"":1586},{""src"":""https://test12345.live/images/schematic_sequence/restaurant_scheme/restaurant_scheme_8.png"",""x"":670,""y"":650,""move_time"":1447}]","[{""src"":""https://test12345.live/images/schematic_sequence/restaurant_scheme/restaurant_scheme_1.png"",""x"":307,""y"":469},{""src"":""https://test12345.live/images/schematic_sequence/restaurant_scheme/restaurant_scheme_6.png"",""x"":307,""y"":650},{""src"":""https://test12345.live/images/schematic_sequence/restaurant_scheme/restaurant_scheme_2.png"",""x"":489,""y"":469},{""src"":""https://test12345.live/images/schematic_sequence/restaurant_scheme/restaurant_scheme_7.png"",""x"":489,""y"":650},{""src"":""https://test12345.live/images/schematic_sequence/restaurant_scheme/restaurant_scheme_3.png"",""x"":670,""y"":469},{""src"":""https://test12345.live/images/schematic_sequence/restaurant_scheme/restaurant_scheme_8.png"",""x"":670,""y"":650},{""src"":""https://test12345.live/images/schematic_sequence/restaurant_scheme/restaurant_scheme_4.png"",""x"":851,""y"":469},{""src"":""https://test12345.live/images/schematic_sequence/restaurant_scheme/restaurant_scheme_9.png"",""x"":851,""y"":650},{""src"":""https://test12345.live/images/schematic_sequence/restaurant_scheme/restaurant_scheme_5.png"",""x"":1032,""y"":469},{""src"":""https://test12345.live/images/schematic_sequence/restaurant_scheme/restaurant_scheme_ten.png"",""x"":1032,""y"":650}]","10",""
"","order","6","228874","0.0-6.0","68DFEC98E3FC47878C5DAB911D0DFA18","conditionB","","69571","[""semantic_sequence/housework_semantic/housework_semantic_8"",""semantic_sequence/housework_semantic/housework_semantic_9"",""semantic_sequence/housework_semantic/housework_semantic_5"",""semantic_sequence/housework_semantic/housework_semantic_7"",""semantic_sequence/housework_semantic/housework_semantic_2"",""semantic_sequence/housework_semantic/housework_semantic_3"",""semantic_sequence/housework_semantic/housework_semantic_4"",""semantic_sequence/housework_semantic/housework_semantic_6"",""semantic_sequence/housework_semantic/housework_semantic_1"",""semantic_sequence/housework_semantic/housework_semantic_ten""]","[{""src"":""https://test12345.live/images/semantic_sequence/housework_semantic/housework_semantic_8.png"",""x"":307,""y"":469,""move_time"":23010},{""src"":""https://test12345.live/images/semantic_sequence/housework_semantic/housework_semantic_6.png"",""x"":489,""y"":469,""move_time"":10837},{""src"":""https://test12345.live/images/semantic_sequence/housework_semantic/housework_semantic_1.png"",""x"":670,""y"":469,""move_time"":4431},{""src"":""https://test12345.live/images/semantic_sequence/housework_semantic/housework_semantic_2.png"",""x"":1032,""y"":61,""move_time"":4994},{""src"":""https://test12345.live/images/semantic_sequence/housework_semantic/housework_semantic_5.png"",""x"":851,""y"":469,""move_time"":1825},{""src"":""https://test12345.live/images/semantic_sequence/housework_semantic/housework_semantic_2.png"",""x"":1032,""y"":469,""move_time"":2254},{""src"":""https://test12345.live/images/semantic_sequence/housework_semantic/housework_semantic_3.png"",""x"":307,""y"":650,""move_time"":10266},{""src"":""https://test12345.live/images/semantic_sequence/housework_semantic/housework_semantic_7.png"",""x"":489,""y"":650,""move_time"":5649},{""src"":""https://test12345.live/images/semantic_sequence/housework_semantic/housework_semantic_4.png"",""x"":670,""y"":650,""move_time"":1241},{""src"":""https://test12345.live/images/semantic_sequence/housework_semantic/housework_semantic_9.png"",""x"":851,""y"":650,""move_time"":2092},{""src"":""https://test12345.live/images/semantic_sequence/housework_semantic/housework_semantic_ten.png"",""x"":1032,""y"":650,""move_time"":1516}]","[{""src"":""https://test12345.live/images/semantic_sequence/housework_semantic/housework_semantic_8.png"",""x"":307,""y"":469},{""src"":""https://test12345.live/images/semantic_sequence/housework_semantic/housework_semantic_3.png"",""x"":307,""y"":650},{""src"":""https://test12345.live/images/semantic_sequence/housework_semantic/housework_semantic_6.png"",""x"":489,""y"":469},{""src"":""https://test12345.live/images/semantic_sequence/housework_semantic/housework_semantic_7.png"",""x"":489,""y"":650},{""src"":""https://test12345.live/images/semantic_sequence/housework_semantic/housework_semantic_1.png"",""x"":670,""y"":469},{""src"":""https://test12345.live/images/semantic_sequence/housework_semantic/housework_semantic_4.png"",""x"":670,""y"":650},{""src"":""https://test12345.live/images/semantic_sequence/housework_semantic/housework_semantic_5.png"",""x"":851,""y"":469},{""src"":""https://test12345.live/images/semantic_sequence/housework_semantic/housework_semantic_9.png"",""x"":851,""y"":650},{""src"":""https://test12345.live/images/semantic_sequence/housework_semantic/housework_semantic_2.png"",""x"":1032,""y"":469},{""src"":""https://test12345.live/images/semantic_sequence/housework_semantic/housework_semantic_ten.png"",""x"":1032,""y"":650}]","11",""
"","order","7","286330","0.0-7.0","68DFEC98E3FC47878C5DAB911D0DFA18","conditionB","","57456","[""schematic_sequence/dinner_party_scheme/dinner_party_scheme_ten"",""schematic_sequence/dinner_party_scheme/dinner_party_scheme_2"",""schematic_sequence/dinner_party_scheme/dinner_party_scheme_4"",""schematic_sequence/dinner_party_scheme/dinner_party_scheme_3"",""schematic_sequence/dinner_party_scheme/dinner_party_scheme_1"",""schematic_sequence/dinner_party_scheme/dinner_party_scheme_5"",""schematic_sequence/dinner_party_scheme/dinner_party_scheme_7"",""schematic_sequence/dinner_party_scheme/dinner_party_scheme_8"",""schematic_sequence/dinner_party_scheme/dinner_party_scheme_9"",""schematic_sequence/dinner_party_scheme/dinner_party_scheme_6""]","[{""src"":""https://test12345.live/images/schematic_sequence/dinner_party_scheme/dinner_party_scheme_3.png"",""x"":307,""y"":469,""move_time"":11616},{""src"":""https://test12345.live/images/schematic_sequence/dinner_party_scheme/dinner_party_scheme_ten.png"",""x"":489,""y"":469,""move_time"":2348},{""src"":""https://test12345.live/images/schematic_sequence/dinner_party_scheme/dinner_party_scheme_ten.png"",""x"":670,""y"":469,""move_time"":3818},{""src"":""https://test12345.live/images/schematic_sequence/dinner_party_scheme/dinner_party_scheme_3.png"",""x"":489,""y"":469,""move_time"":1501},{""src"":""https://test12345.live/images/schematic_sequence/dinner_party_scheme/dinner_party_scheme_2.png"",""x"":307,""y"":469,""move_time"":1739},{""src"":""https://test12345.live/images/schematic_sequence/dinner_party_scheme/dinner_party_scheme_ten.png"",""x"":851,""y"":469,""move_time"":4616},{""src"":""https://test12345.live/images/schematic_sequence/dinner_party_scheme/dinner_party_scheme_3.png"",""x"":670,""y"":469,""move_time"":1102},{""src"":""https://test12345.live/images/schematic_sequence/dinner_party_scheme/dinner_party_scheme_2.png"",""x"":489,""y"":469,""move_time"":976},{""src"":""https://test12345.live/images/schematic_sequence/dinner_party_scheme/dinner_party_scheme_1.png"",""x"":307,""y"":469,""move_time"":2072},{""src"":""https://test12345.live/images/schematic_sequence/dinner_party_scheme/dinner_party_scheme_5.png"",""x"":1032,""y"":469,""move_time"":7610},{""src"":""https://test12345.live/images/schematic_sequence/dinner_party_scheme/dinner_party_scheme_4.png"",""x"":307,""y"":650,""move_time"":4396},{""src"":""https://test12345.live/images/schematic_sequence/dinner_party_scheme/dinner_party_scheme_6.png"",""x"":489,""y"":650,""move_time"":4168},{""src"":""https://test12345.live/images/schematic_sequence/dinner_party_scheme/dinner_party_scheme_7.png"",""x"":670,""y"":650,""move_time"":2648},{""src"":""https://test12345.live/images/schematic_sequence/dinner_party_scheme/dinner_party_scheme_8.png"",""x"":1032,""y"":650,""move_time"":2525},{""src"":""https://test12345.live/images/schematic_sequence/dinner_party_scheme/dinner_party_scheme_9.png"",""x"":851,""y"":243,""move_time"":2323},{""src"":""https://test12345.live/images/schematic_sequence/dinner_party_scheme/dinner_party_scheme_8.png"",""x"":851,""y"":650,""move_time"":1209},{""src"":""https://test12345.live/images/schematic_sequence/dinner_party_scheme/dinner_party_scheme_9.png"",""x"":1032,""y"":650,""move_time"":1492}]","[{""src"":""https://test12345.live/images/schematic_sequence/dinner_party_scheme/dinner_party_scheme_1.png"",""x"":307,""y"":469},{""src"":""https://test12345.live/images/schematic_sequence/dinner_party_scheme/dinner_party_scheme_4.png"",""x"":307,""y"":650},{""src"":""https://test12345.live/images/schematic_sequence/dinner_party_scheme/dinner_party_scheme_2.png"",""x"":489,""y"":469},{""src"":""https://test12345.live/images/schematic_sequence/dinner_party_scheme/dinner_party_scheme_6.png"",""x"":489,""y"":650},{""src"":""https://test12345.live/images/schematic_sequence/dinner_party_scheme/dinner_party_scheme_3.png"",""x"":670,""y"":469},{""src"":""https://test12345.live/images/schematic_sequence/dinner_party_scheme/dinner_party_scheme_7.png"",""x"":670,""y"":650},{""src"":""https://test12345.live/images/schematic_sequence/dinner_party_scheme/dinner_party_scheme_ten.png"",""x"":851,""y"":469},{""src"":""https://test12345.live/images/schematic_sequence/dinner_party_scheme/dinner_party_scheme_8.png"",""x"":851,""y"":650},{""src"":""https://test12345.live/images/schematic_sequence/dinner_party_scheme/dinner_party_scheme_5.png"",""x"":1032,""y"":469},{""src"":""https://test12345.live/images/schematic_sequence/dinner_party_scheme/dinner_party_scheme_9.png"",""x"":1032,""y"":650}]","17",""
"","order","8","347548","0.0-8.0","68DFEC98E3FC47878C5DAB911D0DFA18","conditionB","","61217","[""causal_sequence/package_causal/package_causal_4"",""causal_sequence/package_causal/package_causal_ten"",""causal_sequence/package_causal/package_causal_5"",""causal_sequence/package_causal/package_causal_7"",""causal_sequence/package_causal/package_causal_2"",""causal_sequence/package_causal/package_causal_3"",""causal_sequence/package_causal/package_causal_6"",""causal_sequence/package_causal/package_causal_1"",""causal_sequence/package_causal/package_causal_9"",""causal_sequence/package_causal/package_causal_8""]","[{""src"":""https://test12345.live/images/causal_sequence/package_causal/package_causal_2.png"",""x"":307,""y"":469,""move_time"":18066},{""src"":""https://test12345.live/images/causal_sequence/package_causal/package_causal_4.png"",""x"":489,""y"":469,""move_time"":2064},{""src"":""https://test12345.live/images/causal_sequence/package_causal/package_causal_5.png"",""x"":670,""y"":469,""move_time"":5478},{""src"":""https://test12345.live/images/causal_sequence/package_causal/package_causal_6.png"",""x"":851,""y"":469,""move_time"":4965},{""src"":""https://test12345.live/images/causal_sequence/package_causal/package_causal_1.png"",""x"":1032,""y"":469,""move_time"":2186},{""src"":""https://test12345.live/images/causal_sequence/package_causal/package_causal_1.png"",""x"":307,""y"":650,""move_time"":7156},{""src"":""https://test12345.live/images/causal_sequence/package_causal/package_causal_6.png"",""x"":1032,""y"":469,""move_time"":1048},{""src"":""https://test12345.live/images/causal_sequence/package_causal/package_causal_5.png"",""x"":851,""y"":469,""move_time"":1348},{""src"":""https://test12345.live/images/causal_sequence/package_causal/package_causal_4.png"",""x"":670,""y"":469,""move_time"":1215},{""src"":""https://test12345.live/images/causal_sequence/package_causal/package_causal_3.png"",""x"":489,""y"":469,""move_time"":1316},{""src"":""https://test12345.live/images/causal_sequence/package_causal/package_causal_7.png"",""x"":489,""y"":650,""move_time"":9558},{""src"":""https://test12345.live/images/causal_sequence/package_causal/package_causal_8.png"",""x"":670,""y"":650,""move_time"":2946},{""src"":""https://test12345.live/images/causal_sequence/package_causal/package_causal_9.png"",""x"":851,""y"":650,""move_time"":1323},{""src"":""https://test12345.live/images/causal_sequence/package_causal/package_causal_ten.png"",""x"":1032,""y"":650,""move_time"":1448}]","[{""src"":""https://test12345.live/images/causal_sequence/package_causal/package_causal_2.png"",""x"":307,""y"":469},{""src"":""https://test12345.live/images/causal_sequence/package_causal/package_causal_1.png"",""x"":307,""y"":650},{""src"":""https://test12345.live/images/causal_sequence/package_causal/package_causal_3.png"",""x"":489,""y"":469},{""src"":""https://test12345.live/images/causal_sequence/package_causal/package_causal_7.png"",""x"":489,""y"":650},{""src"":""https://test12345.live/images/causal_sequence/package_causal/package_causal_4.png"",""x"":670,""y"":469},{""src"":""https://test12345.live/images/causal_sequence/package_causal/package_causal_8.png"",""x"":670,""y"":650},{""src"":""https://test12345.live/images/causal_sequence/package_causal/package_causal_5.png"",""x"":851,""y"":469},{""src"":""https://test12345.live/images/causal_sequence/package_causal/package_causal_9.png"",""x"":851,""y"":650},{""src"":""https://test12345.live/images/causal_sequence/package_causal/package_causal_6.png"",""x"":1032,""y"":469},{""src"":""https://test12345.live/images/causal_sequence/package_causal/package_causal_ten.png"",""x"":1032,""y"":650}]","14",""
"","order","9","424488","0.0-9.0","68DFEC98E3FC47878C5DAB911D0DFA18","conditionB","","76939","[""causal_sequence/the_performance_causal/the_performance_causal_2"",""causal_sequence/the_performance_causal/the_performance_causal_8"",""causal_sequence/the_performance_causal/the_performance_causal_3"",""causal_sequence/the_performance_causal/the_performance_causal_4"",""causal_sequence/the_performance_causal/the_performance_causal_6"",""causal_sequence/the_performance_causal/the_performance_causal_5"",""causal_sequence/the_performance_causal/the_performance_causal_1"",""causal_sequence/the_performance_causal/the_performance_causal_7"",""causal_sequence/the_performance_causal/the_performance_causal_9"",""causal_sequence/the_performance_causal/the_performance_causal_ten""]","[{""src"":""https://test12345.live/images/causal_sequence/the_performance_causal/the_performance_causal_1.png"",""x"":307,""y"":469,""move_time"":10810},{""src"":""https://test12345.live/images/causal_sequence/the_performance_causal/the_performance_causal_2.png"",""x"":489,""y"":469,""move_time"":25667},{""src"":""https://test12345.live/images/causal_sequence/the_performance_causal/the_performance_causal_3.png"",""x"":670,""y"":469,""move_time"":6977},{""src"":""https://test12345.live/images/causal_sequence/the_performance_causal/the_performance_causal_5.png"",""x"":851,""y"":469,""move_time"":4210},{""src"":""https://test12345.live/images/causal_sequence/the_performance_causal/the_performance_causal_6.png"",""x"":1032,""y"":469,""move_time"":4008},{""src"":""https://test12345.live/images/causal_sequence/the_performance_causal/the_performance_causal_6.png"",""x"":307,""y"":650,""move_time"":3833},{""src"":""https://test12345.live/images/causal_sequence/the_performance_causal/the_performance_causal_5.png"",""x"":1032,""y"":469,""move_time"":1395},{""src"":""https://test12345.live/images/causal_sequence/the_performance_causal/the_performance_causal_4.png"",""x"":851,""y"":469,""move_time"":1877},{""src"":""https://test12345.live/images/causal_sequence/the_performance_causal/the_performance_causal_7.png"",""x"":489,""y"":650,""move_time"":5094},{""src"":""https://test12345.live/images/causal_sequence/the_performance_causal/the_performance_causal_8.png"",""x"":670,""y"":650,""move_time"":1816},{""src"":""https://test12345.live/images/causal_sequence/the_performance_causal/the_performance_causal_9.png"",""x"":851,""y"":650,""move_time"":1862},{""src"":""https://test12345.live/images/causal_sequence/the_performance_causal/the_performance_causal_ten.png"",""x"":1032,""y"":650,""move_time"":1509}]","[{""src"":""https://test12345.live/images/causal_sequence/the_performance_causal/the_performance_causal_1.png"",""x"":307,""y"":469},{""src"":""https://test12345.live/images/causal_sequence/the_performance_causal/the_performance_causal_6.png"",""x"":307,""y"":650},{""src"":""https://test12345.live/images/causal_sequence/the_performance_causal/the_performance_causal_2.png"",""x"":489,""y"":469},{""src"":""https://test12345.live/images/causal_sequence/the_performance_causal/the_performance_causal_7.png"",""x"":489,""y"":650},{""src"":""https://test12345.live/images/causal_sequence/the_performance_causal/the_performance_causal_3.png"",""x"":670,""y"":469},{""src"":""https://test12345.live/images/causal_sequence/the_performance_causal/the_performance_causal_8.png"",""x"":670,""y"":650},{""src"":""https://test12345.live/images/causal_sequence/the_performance_causal/the_performance_causal_4.png"",""x"":851,""y"":469},{""src"":""https://test12345.live/images/causal_sequence/the_performance_causal/the_performance_causal_9.png"",""x"":851,""y"":650},{""src"":""https://test12345.live/images/causal_sequence/the_performance_causal/the_performance_causal_5.png"",""x"":1032,""y"":469},{""src"":""https://test12345.live/images/causal_sequence/the_performance_causal/the_performance_causal_ten.png"",""x"":1032,""y"":650}]","12",""
"","order","10","492028","0.0-10.0","68DFEC98E3FC47878C5DAB911D0DFA18","conditionB","","67540","[""causal_sequence/dog_causal/dog_causal_9"",""causal_sequence/dog_causal/dog_causal_ten"",""causal_sequence/dog_causal/dog_causal_1"",""causal_sequence/dog_causal/dog_causal_7"",""causal_sequence/dog_causal/dog_causal_8"",""causal_sequence/dog_causal/dog_causal_5"",""causal_sequence/dog_causal/dog_causal_2"",""causal_sequence/dog_causal/dog_causal_6"",""causal_sequence/dog_causal/dog_causal_3"",""causal_sequence/dog_causal/dog_causal_4""]","[{""src"":""https://test12345.live/images/causal_sequence/dog_causal/dog_causal_4.png"",""x"":1032,""y"":243,""move_time"":20654},{""src"":""https://test12345.live/images/causal_sequence/dog_causal/dog_causal_2.png"",""x"":307,""y"":469,""move_time"":3624},{""src"":""https://test12345.live/images/causal_sequence/dog_causal/dog_causal_3.png"",""x"":489,""y"":469,""move_time"":6324},{""src"":""https://test12345.live/images/causal_sequence/dog_causal/dog_causal_4.png"",""x"":670,""y"":469,""move_time"":1858},{""src"":""https://test12345.live/images/causal_sequence/dog_causal/dog_causal_6.png"",""x"":670,""y"":243,""move_time"":2091},{""src"":""https://test12345.live/images/causal_sequence/dog_causal/dog_causal_5.png"",""x"":851,""y"":469,""move_time"":1382},{""src"":""https://test12345.live/images/causal_sequence/dog_causal/dog_causal_6.png"",""x"":1032,""y"":469,""move_time"":1257},{""src"":""https://test12345.live/images/causal_sequence/dog_causal/dog_causal_7.png"",""x"":307,""y"":650,""move_time"":4746},{""src"":""https://test12345.live/images/causal_sequence/dog_causal/dog_causal_7.png"",""x"":489,""y"":650,""move_time"":10584},{""src"":""https://test12345.live/images/causal_sequence/dog_causal/dog_causal_6.png"",""x"":307,""y"":650,""move_time"":1745},{""src"":""https://test12345.live/images/causal_sequence/dog_causal/dog_causal_5.png"",""x"":1032,""y"":469,""move_time"":1039},{""src"":""https://test12345.live/images/causal_sequence/dog_causal/dog_causal_4.png"",""x"":851,""y"":469,""move_time"":890},{""src"":""https://test12345.live/images/causal_sequence/dog_causal/dog_causal_3.png"",""x"":670,""y"":469,""move_time"":971},{""src"":""https://test12345.live/images/causal_sequence/dog_causal/dog_causal_2.png"",""x"":489,""y"":469,""move_time"":818},{""src"":""https://test12345.live/images/causal_sequence/dog_causal/dog_causal_1.png"",""x"":307,""y"":469,""move_time"":2170},{""src"":""https://test12345.live/images/causal_sequence/dog_causal/dog_causal_8.png"",""x"":670,""y"":650,""move_time"":3191},{""src"":""https://test12345.live/images/causal_sequence/dog_causal/dog_causal_9.png"",""x"":851,""y"":650,""move_time"":1815},{""src"":""https://test12345.live/images/causal_sequence/dog_causal/dog_causal_ten.png"",""x"":1032,""y"":650,""move_time"":1540}]","[{""src"":""https://test12345.live/images/causal_sequence/dog_causal/dog_causal_1.png"",""x"":307,""y"":469},{""src"":""https://test12345.live/images/causal_sequence/dog_causal/dog_causal_6.png"",""x"":307,""y"":650},{""src"":""https://test12345.live/images/causal_sequence/dog_causal/dog_causal_2.png"",""x"":489,""y"":469},{""src"":""https://test12345.live/images/causal_sequence/dog_causal/dog_causal_7.png"",""x"":489,""y"":650},{""src"":""https://test12345.live/images/causal_sequence/dog_causal/dog_causal_3.png"",""x"":670,""y"":469},{""src"":""https://test12345.live/images/causal_sequence/dog_causal/dog_causal_8.png"",""x"":670,""y"":650},{""src"":""https://test12345.live/images/causal_sequence/dog_causal/dog_causal_4.png"",""x"":851,""y"":469},{""src"":""https://test12345.live/images/causal_sequence/dog_causal/dog_causal_9.png"",""x"":851,""y"":650},{""src"":""https://test12345.live/images/causal_sequence/dog_causal/dog_causal_5.png"",""x"":1032,""y"":469},{""src"":""https://test12345.live/images/causal_sequence/dog_causal/dog_causal_ten.png"",""x"":1032,""y"":650}]","18",""
"","order","11","526598","0.0-11.0","68DFEC98E3FC47878C5DAB911D0DFA18","conditionB","","34570","[""semantic_sequence/redecorating_a_house_semantic/redecorating_a_house_semantic_ten"",""semantic_sequence/redecorating_a_house_semantic/redecorating_a_house_semantic_2"",""semantic_sequence/redecorating_a_house_semantic/redecorating_a_house_semantic_7"",""semantic_sequence/redecorating_a_house_semantic/redecorating_a_house_semantic_5"",""semantic_sequence/redecorating_a_house_semantic/redecorating_a_house_semantic_1"",""semantic_sequence/redecorating_a_house_semantic/redecorating_a_house_semantic_6"",""semantic_sequence/redecorating_a_house_semantic/redecorating_a_house_semantic_3"",""semantic_sequence/redecorating_a_house_semantic/redecorating_a_house_semantic_8"",""semantic_sequence/redecorating_a_house_semantic/redecorating_a_house_semantic_4"",""semantic_sequence/redecorating_a_house_semantic/redecorating_a_house_semantic_9""]","[{""src"":""https://test12345.live/images/semantic_sequence/redecorating_a_house_semantic/redecorating_a_house_semantic_1.png"",""x"":307,""y"":469,""move_time"":10770},{""src"":""https://test12345.live/images/semantic_sequence/redecorating_a_house_semantic/redecorating_a_house_semantic_2.png"",""x"":489,""y"":469,""move_time"":4656},{""src"":""https://test12345.live/images/semantic_sequence/redecorating_a_house_semantic/redecorating_a_house_semantic_3.png"",""x"":670,""y"":469,""move_time"":1399},{""src"":""https://test12345.live/images/semantic_sequence/redecorating_a_house_semantic/redecorating_a_house_semantic_4.png"",""x"":851,""y"":469,""move_time"":6381},{""src"":""https://test12345.live/images/semantic_sequence/redecorating_a_house_semantic/redecorating_a_house_semantic_5.png"",""x"":1032,""y"":469,""move_time"":1281},{""src"":""https://test12345.live/images/semantic_sequence/redecorating_a_house_semantic/redecorating_a_house_semantic_6.png"",""x"":307,""y"":650,""move_time"":2912},{""src"":""https://test12345.live/images/semantic_sequence/redecorating_a_house_semantic/redecorating_a_house_semantic_7.png"",""x"":489,""y"":650,""move_time"":1430},{""src"":""https://test12345.live/images/semantic_sequence/redecorating_a_house_semantic/redecorating_a_house_semantic_8.png"",""x"":670,""y"":650,""move_time"":1661},{""src"":""https://test12345.live/images/semantic_sequence/redecorating_a_house_semantic/redecorating_a_house_semantic_9.png"",""x"":851,""y"":650,""move_time"":1438},{""src"":""https://test12345.live/images/semantic_sequence/redecorating_a_house_semantic/redecorating_a_house_semantic_ten.png"",""x"":1032,""y"":650,""move_time"":1731}]","[{""src"":""https://test12345.live/images/semantic_sequence/redecorating_a_house_semantic/redecorating_a_house_semantic_1.png"",""x"":307,""y"":469},{""src"":""https://test12345.live/images/semantic_sequence/redecorating_a_house_semantic/redecorating_a_house_semantic_6.png"",""x"":307,""y"":650},{""src"":""https://test12345.live/images/semantic_sequence/redecorating_a_house_semantic/redecorating_a_house_semantic_2.png"",""x"":489,""y"":469},{""src"":""https://test12345.live/images/semantic_sequence/redecorating_a_house_semantic/redecorating_a_house_semantic_7.png"",""x"":489,""y"":650},{""src"":""https://test12345.live/images/semantic_sequence/redecorating_a_house_semantic/redecorating_a_house_semantic_3.png"",""x"":670,""y"":469},{""src"":""https://test12345.live/images/semantic_sequence/redecorating_a_house_semantic/redecorating_a_house_semantic_8.png"",""x"":670,""y"":650},{""src"":""https://test12345.live/images/semantic_sequence/redecorating_a_house_semantic/redecorating_a_house_semantic_4.png"",""x"":851,""y"":469},{""src"":""https://test12345.live/images/semantic_sequence/redecorating_a_house_semantic/redecorating_a_house_semantic_9.png"",""x"":851,""y"":650},{""src"":""https://test12345.live/images/semantic_sequence/redecorating_a_house_semantic/redecorating_a_house_semantic_5.png"",""x"":1032,""y"":469},{""src"":""https://test12345.live/images/semantic_sequence/redecorating_a_house_semantic/redecorating_a_house_semantic_ten.png"",""x"":1032,""y"":650}]","10",""
"","order","12","588242","0.0-12.0","68DFEC98E3FC47878C5DAB911D0DFA18","conditionB","","61643","[""causal_sequence/coin_causal/coin_causal_ten"",""causal_sequence/coin_causal/coin_causal_9"",""causal_sequence/coin_causal/coin_causal_2"",""causal_sequence/coin_causal/coin_causal_7"",""causal_sequence/coin_causal/coin_causal_5"",""causal_sequence/coin_causal/coin_causal_1"",""causal_sequence/coin_causal/coin_causal_4"",""causal_sequence/coin_causal/coin_causal_8"",""causal_sequence/coin_causal/coin_causal_6"",""causal_sequence/coin_causal/coin_causal_3""]","[{""src"":""https://test12345.live/images/causal_sequence/coin_causal/coin_causal_ten.png"",""x"":1032,""y"":650,""move_time"":19512},{""src"":""https://test12345.live/images/causal_sequence/coin_causal/coin_causal_9.png"",""x"":851,""y"":650,""move_time"":10288},{""src"":""https://test12345.live/images/causal_sequence/coin_causal/coin_causal_7.png"",""x"":489,""y"":650,""move_time"":4734},{""src"":""https://test12345.live/images/causal_sequence/coin_causal/coin_causal_8.png"",""x"":670,""y"":650,""move_time"":2138},{""src"":""https://test12345.live/images/causal_sequence/coin_causal/coin_causal_1.png"",""x"":307,""y"":469,""move_time"":11589},{""src"":""https://test12345.live/images/causal_sequence/coin_causal/coin_causal_2.png"",""x"":489,""y"":469,""move_time"":2756},{""src"":""https://test12345.live/images/causal_sequence/coin_causal/coin_causal_3.png"",""x"":670,""y"":469,""move_time"":2292},{""src"":""https://test12345.live/images/causal_sequence/coin_causal/coin_causal_4.png"",""x"":851,""y"":469,""move_time"":2470},{""src"":""https://test12345.live/images/causal_sequence/coin_causal/coin_causal_5.png"",""x"":1032,""y"":469,""move_time"":1653},{""src"":""https://test12345.live/images/causal_sequence/coin_causal/coin_causal_6.png"",""x"":307,""y"":650,""move_time"":1517}]","[{""src"":""https://test12345.live/images/causal_sequence/coin_causal/coin_causal_1.png"",""x"":307,""y"":469},{""src"":""https://test12345.live/images/causal_sequence/coin_causal/coin_causal_6.png"",""x"":307,""y"":650},{""src"":""https://test12345.live/images/causal_sequence/coin_causal/coin_causal_2.png"",""x"":489,""y"":469},{""src"":""https://test12345.live/images/causal_sequence/coin_causal/coin_causal_7.png"",""x"":489,""y"":650},{""src"":""https://test12345.live/images/causal_sequence/coin_causal/coin_causal_3.png"",""x"":670,""y"":469},{""src"":""https://test12345.live/images/causal_sequence/coin_causal/coin_causal_8.png"",""x"":670,""y"":650},{""src"":""https://test12345.live/images/causal_sequence/coin_causal/coin_causal_4.png"",""x"":851,""y"":469},{""src"":""https://test12345.live/images/causal_sequence/coin_causal/coin_causal_9.png"",""x"":851,""y"":650},{""src"":""https://test12345.live/images/causal_sequence/coin_causal/coin_causal_5.png"",""x"":1032,""y"":469},{""src"":""https://test12345.live/images/causal_sequence/coin_causal/coin_causal_ten.png"",""x"":1032,""y"":650}]","10",""
"","order","13","638096","0.0-13.0","68DFEC98E3FC47878C5DAB911D0DFA18","conditionB","","49853","[""schematic_sequence/hotel_scheme/hotel_scheme_1"",""schematic_sequence/hotel_scheme/hotel_scheme_4"",""schematic_sequence/hotel_scheme/hotel_scheme_3"",""schematic_sequence/hotel_scheme/hotel_scheme_5"",""schematic_sequence/hotel_scheme/hotel_scheme_8"",""schematic_sequence/hotel_scheme/hotel_scheme_2"",""schematic_sequence/hotel_scheme/hotel_scheme_7"",""schematic_sequence/hotel_scheme/hotel_scheme_6"",""schematic_sequence/hotel_scheme/hotel_scheme_ten"",""schematic_sequence/hotel_scheme/hotel_scheme_9""]","[{""src"":""https://test12345.live/images/schematic_sequence/hotel_scheme/hotel_scheme_ten.png"",""x"":1032,""y"":650,""move_time"":12970},{""src"":""https://test12345.live/images/schematic_sequence/hotel_scheme/hotel_scheme_1.png"",""x"":307,""y"":469,""move_time"":8304},{""src"":""https://test12345.live/images/schematic_sequence/hotel_scheme/hotel_scheme_9.png"",""x"":851,""y"":650,""move_time"":4808},{""src"":""https://test12345.live/images/schematic_sequence/hotel_scheme/hotel_scheme_8.png"",""x"":670,""y"":650,""move_time"":5027},{""src"":""https://test12345.live/images/schematic_sequence/hotel_scheme/hotel_scheme_2.png"",""x"":489,""y"":469,""move_time"":4639},{""src"":""https://test12345.live/images/schematic_sequence/hotel_scheme/hotel_scheme_3.png"",""x"":670,""y"":469,""move_time"":3378},{""src"":""https://test12345.live/images/schematic_sequence/hotel_scheme/hotel_scheme_4.png"",""x"":851,""y"":469,""move_time"":1416},{""src"":""https://test12345.live/images/schematic_sequence/hotel_scheme/hotel_scheme_5.png"",""x"":1032,""y"":469,""move_time"":2384},{""src"":""https://test12345.live/images/schematic_sequence/hotel_scheme/hotel_scheme_6.png"",""x"":307,""y"":650,""move_time"":3818},{""src"":""https://test12345.live/images/schematic_sequence/hotel_scheme/hotel_scheme_7.png"",""x"":489,""y"":650,""move_time"":1808}]","[{""src"":""https://test12345.live/images/schematic_sequence/hotel_scheme/hotel_scheme_1.png"",""x"":307,""y"":469},{""src"":""https://test12345.live/images/schematic_sequence/hotel_scheme/hotel_scheme_6.png"",""x"":307,""y"":650},{""src"":""https://test12345.live/images/schematic_sequence/hotel_scheme/hotel_scheme_2.png"",""x"":489,""y"":469},{""src"":""https://test12345.live/images/schematic_sequence/hotel_scheme/hotel_scheme_7.png"",""x"":489,""y"":650},{""src"":""https://test12345.live/images/schematic_sequence/hotel_scheme/hotel_scheme_3.png"",""x"":670,""y"":469},{""src"":""https://test12345.live/images/schematic_sequence/hotel_scheme/hotel_scheme_8.png"",""x"":670,""y"":650},{""src"":""https://test12345.live/images/schematic_sequence/hotel_scheme/hotel_scheme_4.png"",""x"":851,""y"":469},{""src"":""https://test12345.live/images/schematic_sequence/hotel_scheme/hotel_scheme_9.png"",""x"":851,""y"":650},{""src"":""https://test12345.live/images/schematic_sequence/hotel_scheme/hotel_scheme_5.png"",""x"":1032,""y"":469},{""src"":""https://test12345.live/images/schematic_sequence/hotel_scheme/hotel_scheme_ten.png"",""x"":1032,""y"":650}]","10",""
"","order","14","663300","0.0-14.0","68DFEC98E3FC47878C5DAB911D0DFA18","conditionB","","25203","[""semantic_sequence/exploring_nature_semantic/exploring_nature_semantic_5"",""semantic_sequence/exploring_nature_semantic/exploring_nature_semantic_1"",""semantic_sequence/exploring_nature_semantic/exploring_nature_semantic_4"",""semantic_sequence/exploring_nature_semantic/exploring_nature_semantic_8"",""semantic_sequence/exploring_nature_semantic/exploring_nature_semantic_7"",""semantic_sequence/exploring_nature_semantic/exploring_nature_semantic_2"",""semantic_sequence/exploring_nature_semantic/exploring_nature_semantic_3"",""semantic_sequence/exploring_nature_semantic/exploring_nature_semantic_ten"",""semantic_sequence/exploring_nature_semantic/exploring_nature_semantic_9"",""semantic_sequence/exploring_nature_semantic/exploring_nature_semantic_6""]","[{""src"":""https://test12345.live/images/semantic_sequence/exploring_nature_semantic/exploring_nature_semantic_1.png"",""x"":307,""y"":469,""move_time"":5953},{""src"":""https://test12345.live/images/semantic_sequence/exploring_nature_semantic/exploring_nature_semantic_2.png"",""x"":489,""y"":469,""move_time"":1107},{""src"":""https://test12345.live/images/semantic_sequence/exploring_nature_semantic/exploring_nature_semantic_3.png"",""x"":670,""y"":469,""move_time"":1239},{""src"":""https://test12345.live/images/semantic_sequence/exploring_nature_semantic/exploring_nature_semantic_4.png"",""x"":851,""y"":469,""move_time"":2101},{""src"":""https://test12345.live/images/semantic_sequence/exploring_nature_semantic/exploring_nature_semantic_5.png"",""x"":1032,""y"":469,""move_time"":1938},{""src"":""https://test12345.live/images/semantic_sequence/exploring_nature_semantic/exploring_nature_semantic_6.png"",""x"":307,""y"":650,""move_time"":2438},{""src"":""https://test12345.live/images/semantic_sequence/exploring_nature_semantic/exploring_nature_semantic_7.png"",""x"":489,""y"":650,""move_time"":1717},{""src"":""https://test12345.live/images/semantic_sequence/exploring_nature_semantic/exploring_nature_semantic_8.png"",""x"":670,""y"":650,""move_time"":1685},{""src"":""https://test12345.live/images/semantic_sequence/exploring_nature_semantic/exploring_nature_semantic_9.png"",""x"":851,""y"":650,""move_time"":1414},{""src"":""https://test12345.live/images/semantic_sequence/exploring_nature_semantic/exploring_nature_semantic_ten.png"",""x"":1032,""y"":650,""move_time"":1563}]","[{""src"":""https://test12345.live/images/semantic_sequence/exploring_nature_semantic/exploring_nature_semantic_1.png"",""x"":307,""y"":469},{""src"":""https://test12345.live/images/semantic_sequence/exploring_nature_semantic/exploring_nature_semantic_6.png"",""x"":307,""y"":650},{""src"":""https://test12345.live/images/semantic_sequence/exploring_nature_semantic/exploring_nature_semantic_2.png"",""x"":489,""y"":469},{""src"":""https://test12345.live/images/semantic_sequence/exploring_nature_semantic/exploring_nature_semantic_7.png"",""x"":489,""y"":650},{""src"":""https://test12345.live/images/semantic_sequence/exploring_nature_semantic/exploring_nature_semantic_3.png"",""x"":670,""y"":469},{""src"":""https://test12345.live/images/semantic_sequence/exploring_nature_semantic/exploring_nature_semantic_8.png"",""x"":670,""y"":650},{""src"":""https://test12345.live/images/semantic_sequence/exploring_nature_semantic/exploring_nature_semantic_4.png"",""x"":851,""y"":469},{""src"":""https://test12345.live/images/semantic_sequence/exploring_nature_semantic/exploring_nature_semantic_9.png"",""x"":851,""y"":650},{""src"":""https://test12345.live/images/semantic_sequence/exploring_nature_semantic/exploring_nature_semantic_5.png"",""x"":1032,""y"":469},{""src"":""https://test12345.live/images/semantic_sequence/exploring_nature_semantic/exploring_nature_semantic_ten.png"",""x"":1032,""y"":650}]","10",""
"","order","15","694514","0.0-15.0","68DFEC98E3FC47878C5DAB911D0DFA18","conditionB","","31214","[""semantic_sequence/maintaining_a_car_semantic/maintaining_a_car_semantic_7"",""semantic_sequence/maintaining_a_car_semantic/maintaining_a_car_semantic_2"",""semantic_sequence/maintaining_a_car_semantic/maintaining_a_car_semantic_8"",""semantic_sequence/maintaining_a_car_semantic/maintaining_a_car_semantic_5"",""semantic_sequence/maintaining_a_car_semantic/maintaining_a_car_semantic_ten"",""semantic_sequence/maintaining_a_car_semantic/maintaining_a_car_semantic_3"",""semantic_sequence/maintaining_a_car_semantic/maintaining_a_car_semantic_6"",""semantic_sequence/maintaining_a_car_semantic/maintaining_a_car_semantic_9"",""semantic_sequence/maintaining_a_car_semantic/maintaining_a_car_semantic_4"",""semantic_sequence/maintaining_a_car_semantic/maintaining_a_car_semantic_1""]","[{""src"":""https://test12345.live/images/semantic_sequence/maintaining_a_car_semantic/maintaining_a_car_semantic_1.png"",""x"":307,""y"":469,""move_time"":7169},{""src"":""https://test12345.live/images/semantic_sequence/maintaining_a_car_semantic/maintaining_a_car_semantic_2.png"",""x"":489,""y"":469,""move_time"":7865},{""src"":""https://test12345.live/images/semantic_sequence/maintaining_a_car_semantic/maintaining_a_car_semantic_3.png"",""x"":670,""y"":469,""move_time"":2482},{""src"":""https://test12345.live/images/semantic_sequence/maintaining_a_car_semantic/maintaining_a_car_semantic_4.png"",""x"":851,""y"":469,""move_time"":3128},{""src"":""https://test12345.live/images/semantic_sequence/maintaining_a_car_semantic/maintaining_a_car_semantic_5.png"",""x"":1032,""y"":469,""move_time"":1174},{""src"":""https://test12345.live/images/semantic_sequence/maintaining_a_car_semantic/maintaining_a_car_semantic_6.png"",""x"":307,""y"":650,""move_time"":1724},{""src"":""https://test12345.live/images/semantic_sequence/maintaining_a_car_semantic/maintaining_a_car_semantic_7.png"",""x"":489,""y"":650,""move_time"":2183},{""src"":""https://test12345.live/images/semantic_sequence/maintaining_a_car_semantic/maintaining_a_car_semantic_8.png"",""x"":670,""y"":650,""move_time"":1178},{""src"":""https://test12345.live/images/semantic_sequence/maintaining_a_car_semantic/maintaining_a_car_semantic_9.png"",""x"":851,""y"":650,""move_time"":1839},{""src"":""https://test12345.live/images/semantic_sequence/maintaining_a_car_semantic/maintaining_a_car_semantic_ten.png"",""x"":1032,""y"":650,""move_time"":1500}]","[{""src"":""https://test12345.live/images/semantic_sequence/maintaining_a_car_semantic/maintaining_a_car_semantic_1.png"",""x"":307,""y"":469},{""src"":""https://test12345.live/images/semantic_sequence/maintaining_a_car_semantic/maintaining_a_car_semantic_6.png"",""x"":307,""y"":650},{""src"":""https://test12345.live/images/semantic_sequence/maintaining_a_car_semantic/maintaining_a_car_semantic_2.png"",""x"":489,""y"":469},{""src"":""https://test12345.live/images/semantic_sequence/maintaining_a_car_semantic/maintaining_a_car_semantic_7.png"",""x"":489,""y"":650},{""src"":""https://test12345.live/images/semantic_sequence/maintaining_a_car_semantic/maintaining_a_car_semantic_3.png"",""x"":670,""y"":469},{""src"":""https://test12345.live/images/semantic_sequence/maintaining_a_car_semantic/maintaining_a_car_semantic_8.png"",""x"":670,""y"":650},{""src"":""https://test12345.live/images/semantic_sequence/maintaining_a_car_semantic/maintaining_a_car_semantic_4.png"",""x"":851,""y"":469},{""src"":""https://test12345.live/images/semantic_sequence/maintaining_a_car_semantic/maintaining_a_car_semantic_9.png"",""x"":851,""y"":650},{""src"":""https://test12345.live/images/semantic_sequence/maintaining_a_car_semantic/maintaining_a_car_semantic_5.png"",""x"":1032,""y"":469},{""src"":""https://test12345.live/images/semantic_sequence/maintaining_a_car_semantic/maintaining_a_car_semantic_ten.png"",""x"":1032,""y"":650}]","10",""
"","order","16","743242","0.0-16.0","68DFEC98E3FC47878C5DAB911D0DFA18","conditionB","","48727","[""schematic_sequence/flight_scheme/flight_scheme_7"",""schematic_sequence/flight_scheme/flight_scheme_1"",""schematic_sequence/flight_scheme/flight_scheme_8"",""schematic_sequence/flight_scheme/flight_scheme_6"",""schematic_sequence/flight_scheme/flight_scheme_ten"",""schematic_sequence/flight_scheme/flight_scheme_9"",""schematic_sequence/flight_scheme/flight_scheme_5"",""schematic_sequence/flight_scheme/flight_scheme_4"",""schematic_sequence/flight_scheme/flight_scheme_3"",""schematic_sequence/flight_scheme/flight_scheme_2""]","[{""src"":""https://test12345.live/images/schematic_sequence/flight_scheme/flight_scheme_1.png"",""x"":307,""y"":469,""move_time"":8022},{""src"":""https://test12345.live/images/schematic_sequence/flight_scheme/flight_scheme_2.png"",""x"":489,""y"":469,""move_time"":6441},{""src"":""https://test12345.live/images/schematic_sequence/flight_scheme/flight_scheme_3.png"",""x"":670,""y"":469,""move_time"":3878},{""src"":""https://test12345.live/images/schematic_sequence/flight_scheme/flight_scheme_4.png"",""x"":851,""y"":469,""move_time"":11543},{""src"":""https://test12345.live/images/schematic_sequence/flight_scheme/flight_scheme_5.png"",""x"":1032,""y"":469,""move_time"":5609},{""src"":""https://test12345.live/images/schematic_sequence/flight_scheme/flight_scheme_7.png"",""x"":307,""y"":61,""move_time"":1947},{""src"":""https://test12345.live/images/schematic_sequence/flight_scheme/flight_scheme_6.png"",""x"":307,""y"":650,""move_time"":2552},{""src"":""https://test12345.live/images/schematic_sequence/flight_scheme/flight_scheme_7.png"",""x"":489,""y"":650,""move_time"":2133},{""src"":""https://test12345.live/images/schematic_sequence/flight_scheme/flight_scheme_8.png"",""x"":670,""y"":650,""move_time"":2583},{""src"":""https://test12345.live/images/schematic_sequence/flight_scheme/flight_scheme_9.png"",""x"":851,""y"":650,""move_time"":1725},{""src"":""https://test12345.live/images/schematic_sequence/flight_scheme/flight_scheme_ten.png"",""x"":1032,""y"":650,""move_time"":1422}]","[{""src"":""https://test12345.live/images/schematic_sequence/flight_scheme/flight_scheme_1.png"",""x"":307,""y"":469},{""src"":""https://test12345.live/images/schematic_sequence/flight_scheme/flight_scheme_6.png"",""x"":307,""y"":650},{""src"":""https://test12345.live/images/schematic_sequence/flight_scheme/flight_scheme_2.png"",""x"":489,""y"":469},{""src"":""https://test12345.live/images/schematic_sequence/flight_scheme/flight_scheme_7.png"",""x"":489,""y"":650},{""src"":""https://test12345.live/images/schematic_sequence/flight_scheme/flight_scheme_3.png"",""x"":670,""y"":469},{""src"":""https://test12345.live/images/schematic_sequence/flight_scheme/flight_scheme_8.png"",""x"":670,""y"":650},{""src"":""https://test12345.live/images/schematic_sequence/flight_scheme/flight_scheme_4.png"",""x"":851,""y"":469},{""src"":""https://test12345.live/images/schematic_sequence/flight_scheme/flight_scheme_9.png"",""x"":851,""y"":650},{""src"":""https://test12345.live/images/schematic_sequence/flight_scheme/flight_scheme_5.png"",""x"":1032,""y"":469},{""src"":""https://test12345.live/images/schematic_sequence/flight_scheme/flight_scheme_ten.png"",""x"":1032,""y"":650}]","11",""
"","order","17","789844","0.0-17.0","68DFEC98E3FC47878C5DAB911D0DFA18","conditionB","","46602","[""causal_sequence/museum_causal/museum_causal_ten"",""causal_sequence/museum_causal/museum_causal_1"",""causal_sequence/museum_causal/museum_causal_7"",""causal_sequence/museum_causal/museum_causal_3"",""causal_sequence/museum_causal/museum_causal_5"",""causal_sequence/museum_causal/museum_causal_9"",""causal_sequence/museum_causal/museum_causal_2"",""causal_sequence/museum_causal/museum_causal_8"",""causal_sequence/museum_causal/museum_causal_4"",""causal_sequence/museum_causal/museum_causal_6""]","[{""src"":""https://test12345.live/images/causal_sequence/museum_causal/museum_causal_1.png"",""x"":307,""y"":469,""move_time"":12239},{""src"":""https://test12345.live/images/causal_sequence/museum_causal/museum_causal_2.png"",""x"":489,""y"":469,""move_time"":2345},{""src"":""https://test12345.live/images/causal_sequence/museum_causal/museum_causal_3.png"",""x"":670,""y"":469,""move_time"":5941},{""src"":""https://test12345.live/images/causal_sequence/museum_causal/museum_causal_4.png"",""x"":851,""y"":469,""move_time"":5123},{""src"":""https://test12345.live/images/causal_sequence/museum_causal/museum_causal_5.png"",""x"":1032,""y"":469,""move_time"":3455},{""src"":""https://test12345.live/images/causal_sequence/museum_causal/museum_causal_6.png"",""x"":307,""y"":650,""move_time"":3331},{""src"":""https://test12345.live/images/causal_sequence/museum_causal/museum_causal_7.png"",""x"":489,""y"":650,""move_time"":3385},{""src"":""https://test12345.live/images/causal_sequence/museum_causal/museum_causal_ten.png"",""x"":670,""y"":650,""move_time"":2279},{""src"":""https://test12345.live/images/causal_sequence/museum_causal/museum_causal_9.png"",""x"":851,""y"":650,""move_time"":4254},{""src"":""https://test12345.live/images/causal_sequence/museum_causal/museum_causal_8.png"",""x"":1032,""y"":650,""move_time"":2317}]","[{""src"":""https://test12345.live/images/causal_sequence/museum_causal/museum_causal_1.png"",""x"":307,""y"":469},{""src"":""https://test12345.live/images/causal_sequence/museum_causal/museum_causal_6.png"",""x"":307,""y"":650},{""src"":""https://test12345.live/images/causal_sequence/museum_causal/museum_causal_2.png"",""x"":489,""y"":469},{""src"":""https://test12345.live/images/causal_sequence/museum_causal/museum_causal_7.png"",""x"":489,""y"":650},{""src"":""https://test12345.live/images/causal_sequence/museum_causal/museum_causal_3.png"",""x"":670,""y"":469},{""src"":""https://test12345.live/images/causal_sequence/museum_causal/museum_causal_ten.png"",""x"":670,""y"":650},{""src"":""https://test12345.live/images/causal_sequence/museum_causal/museum_causal_4.png"",""x"":851,""y"":469},{""src"":""https://test12345.live/images/causal_sequence/museum_causal/museum_causal_9.png"",""x"":851,""y"":650},{""src"":""https://test12345.live/images/causal_sequence/museum_causal/museum_causal_5.png"",""x"":1032,""y"":469},{""src"":""https://test12345.live/images/causal_sequence/museum_causal/museum_causal_8.png"",""x"":1032,""y"":650}]","10",""
"","order","18","850185","0.0-18.0","68DFEC98E3FC47878C5DAB911D0DFA18","conditionB","","60339","[""causal_sequence/saving_a_cat_causal/saving_a_cat_causal_7"",""causal_sequence/saving_a_cat_causal/saving_a_cat_causal_2"",""causal_sequence/saving_a_cat_causal/saving_a_cat_causal_3"",""causal_sequence/saving_a_cat_causal/saving_a_cat_causal_6"",""causal_sequence/saving_a_cat_causal/saving_a_cat_causal_5"",""causal_sequence/saving_a_cat_causal/saving_a_cat_causal_4"",""causal_sequence/saving_a_cat_causal/saving_a_cat_causal_1"",""causal_sequence/saving_a_cat_causal/saving_a_cat_causal_8"",""causal_sequence/saving_a_cat_causal/saving_a_cat_causal_ten"",""causal_sequence/saving_a_cat_causal/saving_a_cat_causal_9""]","[{""src"":""https://test12345.live/images/causal_sequence/saving_a_cat_causal/saving_a_cat_causal_2.png"",""x"":489,""y"":61,""move_time"":10608},{""src"":""https://test12345.live/images/causal_sequence/saving_a_cat_causal/saving_a_cat_causal_9.png"",""x"":1032,""y"":650,""move_time"":5662},{""src"":""https://test12345.live/images/causal_sequence/saving_a_cat_causal/saving_a_cat_causal_8.png"",""x"":851,""y"":650,""move_time"":6896},{""src"":""https://test12345.live/images/causal_sequence/saving_a_cat_causal/saving_a_cat_causal_7.png"",""x"":670,""y"":650,""move_time"":3109},{""src"":""https://test12345.live/images/causal_sequence/saving_a_cat_causal/saving_a_cat_causal_6.png"",""x"":489,""y"":650,""move_time"":1776},{""src"":""https://test12345.live/images/causal_sequence/saving_a_cat_causal/saving_a_cat_causal_5.png"",""x"":307,""y"":650,""move_time"":3139},{""src"":""https://test12345.live/images/causal_sequence/saving_a_cat_causal/saving_a_cat_causal_4.png"",""x"":1032,""y"":469,""move_time"":2178},{""src"":""https://test12345.live/images/causal_sequence/saving_a_cat_causal/saving_a_cat_causal_3.png"",""x"":851,""y"":469,""move_time"":3954},{""src"":""https://test12345.live/images/causal_sequence/saving_a_cat_causal/saving_a_cat_causal_2.png"",""x"":489,""y"":469,""move_time"":6765},{""src"":""https://test12345.live/images/causal_sequence/saving_a_cat_causal/saving_a_cat_causal_3.png"",""x"":670,""y"":469,""move_time"":1177},{""src"":""https://test12345.live/images/causal_sequence/saving_a_cat_causal/saving_a_cat_causal_4.png"",""x"":851,""y"":469,""move_time"":1102},{""src"":""https://test12345.live/images/causal_sequence/saving_a_cat_causal/saving_a_cat_causal_5.png"",""x"":1032,""y"":469,""move_time"":1590},{""src"":""https://test12345.live/images/causal_sequence/saving_a_cat_causal/saving_a_cat_causal_6.png"",""x"":307,""y"":650,""move_time"":1317},{""src"":""https://test12345.live/images/causal_sequence/saving_a_cat_causal/saving_a_cat_causal_7.png"",""x"":489,""y"":650,""move_time"":1023},{""src"":""https://test12345.live/images/causal_sequence/saving_a_cat_causal/saving_a_cat_causal_8.png"",""x"":670,""y"":650,""move_time"":947},{""src"":""https://test12345.live/images/causal_sequence/saving_a_cat_causal/saving_a_cat_causal_9.png"",""x"":851,""y"":650,""move_time"":1091},{""src"":""https://test12345.live/images/causal_sequence/saving_a_cat_causal/saving_a_cat_causal_ten.png"",""x"":1032,""y"":650,""move_time"":1347},{""src"":""https://test12345.live/images/causal_sequence/saving_a_cat_causal/saving_a_cat_causal_1.png"",""x"":307,""y"":469,""move_time"":5947}]","[{""src"":""https://test12345.live/images/causal_sequence/saving_a_cat_causal/saving_a_cat_causal_1.png"",""x"":307,""y"":469},{""src"":""https://test12345.live/images/causal_sequence/saving_a_cat_causal/saving_a_cat_causal_6.png"",""x"":307,""y"":650},{""src"":""https://test12345.live/images/causal_sequence/saving_a_cat_causal/saving_a_cat_causal_2.png"",""x"":489,""y"":469},{""src"":""https://test12345.live/images/causal_sequence/saving_a_cat_causal/saving_a_cat_causal_7.png"",""x"":489,""y"":650},{""src"":""https://test12345.live/images/causal_sequence/saving_a_cat_causal/saving_a_cat_causal_3.png"",""x"":670,""y"":469},{""src"":""https://test12345.live/images/causal_sequence/saving_a_cat_causal/saving_a_cat_causal_8.png"",""x"":670,""y"":650},{""src"":""https://test12345.live/images/causal_sequence/saving_a_cat_causal/saving_a_cat_causal_4.png"",""x"":851,""y"":469},{""src"":""https://test12345.live/images/causal_sequence/saving_a_cat_causal/saving_a_cat_causal_9.png"",""x"":851,""y"":650},{""src"":""https://test12345.live/images/causal_sequence/saving_a_cat_causal/saving_a_cat_causal_5.png"",""x"":1032,""y"":469},{""src"":""https://test12345.live/images/causal_sequence/saving_a_cat_causal/saving_a_cat_causal_ten.png"",""x"":1032,""y"":650}]","18",""
"","order","19","873788","0.0-19.0","68DFEC98E3FC47878C5DAB911D0DFA18","conditionB","","23603","[""semantic_sequence/using_technology_semantic/using_technology_semantic_ten"",""semantic_sequence/using_technology_semantic/using_technology_semantic_8"",""semantic_sequence/using_technology_semantic/using_technology_semantic_3"",""semantic_sequence/using_technology_semantic/using_technology_semantic_9"",""semantic_sequence/using_technology_semantic/using_technology_semantic_4"",""semantic_sequence/using_technology_semantic/using_technology_semantic_7"",""semantic_sequence/using_technology_semantic/using_technology_semantic_6"",""semantic_sequence/using_technology_semantic/using_technology_semantic_5"",""semantic_sequence/using_technology_semantic/using_technology_semantic_1"",""semantic_sequence/using_technology_semantic/using_technology_semantic_2""]","[{""src"":""https://test12345.live/images/semantic_sequence/using_technology_semantic/using_technology_semantic_1.png"",""x"":307,""y"":469,""move_time"":7270},{""src"":""https://test12345.live/images/semantic_sequence/using_technology_semantic/using_technology_semantic_2.png"",""x"":489,""y"":469,""move_time"":1602},{""src"":""https://test12345.live/images/semantic_sequence/using_technology_semantic/using_technology_semantic_3.png"",""x"":670,""y"":469,""move_time"":2327},{""src"":""https://test12345.live/images/semantic_sequence/using_technology_semantic/using_technology_semantic_4.png"",""x"":851,""y"":469,""move_time"":2739},{""src"":""https://test12345.live/images/semantic_sequence/using_technology_semantic/using_technology_semantic_5.png"",""x"":1032,""y"":469,""move_time"":1801},{""src"":""https://test12345.live/images/semantic_sequence/using_technology_semantic/using_technology_semantic_6.png"",""x"":307,""y"":650,""move_time"":1306},{""src"":""https://test12345.live/images/semantic_sequence/using_technology_semantic/using_technology_semantic_7.png"",""x"":489,""y"":650,""move_time"":1067},{""src"":""https://test12345.live/images/semantic_sequence/using_technology_semantic/using_technology_semantic_8.png"",""x"":670,""y"":650,""move_time"":1709},{""src"":""https://test12345.live/images/semantic_sequence/using_technology_semantic/using_technology_semantic_9.png"",""x"":851,""y"":650,""move_time"":1316},{""src"":""https://test12345.live/images/semantic_sequence/using_technology_semantic/using_technology_semantic_ten.png"",""x"":1032,""y"":650,""move_time"":1530}]","[{""src"":""https://test12345.live/images/semantic_sequence/using_technology_semantic/using_technology_semantic_1.png"",""x"":307,""y"":469},{""src"":""https://test12345.live/images/semantic_sequence/using_technology_semantic/using_technology_semantic_6.png"",""x"":307,""y"":650},{""src"":""https://test12345.live/images/semantic_sequence/using_technology_semantic/using_technology_semantic_2.png"",""x"":489,""y"":469},{""src"":""https://test12345.live/images/semantic_sequence/using_technology_semantic/using_technology_semantic_7.png"",""x"":489,""y"":650},{""src"":""https://test12345.live/images/semantic_sequence/using_technology_semantic/using_technology_semantic_3.png"",""x"":670,""y"":469},{""src"":""https://test12345.live/images/semantic_sequence/using_technology_semantic/using_technology_semantic_8.png"",""x"":670,""y"":650},{""src"":""https://test12345.live/images/semantic_sequence/using_technology_semantic/using_technology_semantic_4.png"",""x"":851,""y"":469},{""src"":""https://test12345.live/images/semantic_sequence/using_technology_semantic/using_technology_semantic_9.png"",""x"":851,""y"":650},{""src"":""https://test12345.live/images/semantic_sequence/using_technology_semantic/using_technology_semantic_5.png"",""x"":1032,""y"":469},{""src"":""https://test12345.live/images/semantic_sequence/using_technology_semantic/using_technology_semantic_ten.png"",""x"":1032,""y"":650}]","10",""
"","order","20","897508","0.0-20.0","68DFEC98E3FC47878C5DAB911D0DFA18","conditionB","","23719","[""semantic_sequence/kitchen_operations_semantic/kitchen_operations_semantic_6"",""semantic_sequence/kitchen_operations_semantic/kitchen_operations_semantic_7"",""semantic_sequence/kitchen_operations_semantic/kitchen_operations_semantic_3"",""semantic_sequence/kitchen_operations_semantic/kitchen_operations_semantic_4"",""semantic_sequence/kitchen_operations_semantic/kitchen_operations_semantic_ten"",""semantic_sequence/kitchen_operations_semantic/kitchen_operations_semantic_8"",""semantic_sequence/kitchen_operations_semantic/kitchen_operations_semantic_1"",""semantic_sequence/kitchen_operations_semantic/kitchen_operations_semantic_2"",""semantic_sequence/kitchen_operations_semantic/kitchen_operations_semantic_9"",""semantic_sequence/kitchen_operations_semantic/kitchen_operations_semantic_5""]","[{""src"":""https://test12345.live/images/semantic_sequence/kitchen_operations_semantic/kitchen_operations_semantic_ten.png"",""x"":1032,""y"":650,""move_time"":5961},{""src"":""https://test12345.live/images/semantic_sequence/kitchen_operations_semantic/kitchen_operations_semantic_5.png"",""x"":1032,""y"":469,""move_time"":1724},{""src"":""https://test12345.live/images/semantic_sequence/kitchen_operations_semantic/kitchen_operations_semantic_9.png"",""x"":851,""y"":650,""move_time"":1794},{""src"":""https://test12345.live/images/semantic_sequence/kitchen_operations_semantic/kitchen_operations_semantic_4.png"",""x"":851,""y"":469,""move_time"":1250},{""src"":""https://test12345.live/images/semantic_sequence/kitchen_operations_semantic/kitchen_operations_semantic_2.png"",""x"":489,""y"":469,""move_time"":1807},{""src"":""https://test12345.live/images/semantic_sequence/kitchen_operations_semantic/kitchen_operations_semantic_3.png"",""x"":670,""y"":469,""move_time"":1181},{""src"":""https://test12345.live/images/semantic_sequence/kitchen_operations_semantic/kitchen_operations_semantic_7.png"",""x"":489,""y"":650,""move_time"":1466},{""src"":""https://test12345.live/images/semantic_sequence/kitchen_operations_semantic/kitchen_operations_semantic_1.png"",""x"":307,""y"":469,""move_time"":1196},{""src"":""https://test12345.live/images/semantic_sequence/kitchen_operations_semantic/kitchen_operations_semantic_8.png"",""x"":670,""y"":650,""move_time"":1198},{""src"":""https://test12345.live/images/semantic_sequence/kitchen_operations_semantic/kitchen_operations_semantic_6.png"",""x"":307,""y"":650,""move_time"":1587}]","[{""src"":""https://test12345.live/images/semantic_sequence/kitchen_operations_semantic/kitchen_operations_semantic_1.png"",""x"":307,""y"":469},{""src"":""https://test12345.live/images/semantic_sequence/kitchen_operations_semantic/kitchen_operations_semantic_6.png"",""x"":307,""y"":650},{""src"":""https://test12345.live/images/semantic_sequence/kitchen_operations_semantic/kitchen_operations_semantic_2.png"",""x"":489,""y"":469},{""src"":""https://test12345.live/images/semantic_sequence/kitchen_operations_semantic/kitchen_operations_semantic_7.png"",""x"":489,""y"":650},{""src"":""https://test12345.live/images/semantic_sequence/kitchen_operations_semantic/kitchen_operations_semantic_3.png"",""x"":670,""y"":469},{""src"":""https://test12345.live/images/semantic_sequence/kitchen_operations_semantic/kitchen_operations_semantic_8.png"",""x"":670,""y"":650},{""src"":""https://test12345.live/images/semantic_sequence/kitchen_operations_semantic/kitchen_operations_semantic_4.png"",""x"":851,""y"":469},{""src"":""https://test12345.live/images/semantic_sequence/kitchen_operations_semantic/kitchen_operations_semantic_9.png"",""x"":851,""y"":650},{""src"":""https://test12345.live/images/semantic_sequence/kitchen_operations_semantic/kitchen_operations_semantic_5.png"",""x"":1032,""y"":469},{""src"":""https://test12345.live/images/semantic_sequence/kitchen_operations_semantic/kitchen_operations_semantic_ten.png"",""x"":1032,""y"":650}]","10",""
"","order","21","954450","0.0-21.0","68DFEC98E3FC47878C5DAB911D0DFA18","conditionB","","56942","[""schematic_sequence/interview_scheme/interview_scheme_3"",""schematic_sequence/interview_scheme/interview_scheme_2"",""schematic_sequence/interview_scheme/interview_scheme_8"",""schematic_sequence/interview_scheme/interview_scheme_6"",""schematic_sequence/interview_scheme/interview_scheme_9"",""schematic_sequence/interview_scheme/interview_scheme_4"",""schematic_sequence/interview_scheme/interview_scheme_ten"",""schematic_sequence/interview_scheme/interview_scheme_7"",""schematic_sequence/interview_scheme/interview_scheme_5"",""schematic_sequence/interview_scheme/interview_scheme_1""]","[{""src"":""https://test12345.live/images/schematic_sequence/interview_scheme/interview_scheme_1.png"",""x"":307,""y"":469,""move_time"":17600},{""src"":""https://test12345.live/images/schematic_sequence/interview_scheme/interview_scheme_3.png"",""x"":489,""y"":469,""move_time"":2701},{""src"":""https://test12345.live/images/schematic_sequence/interview_scheme/interview_scheme_3.png"",""x"":670,""y"":469,""move_time"":3694},{""src"":""https://test12345.live/images/schematic_sequence/interview_scheme/interview_scheme_2.png"",""x"":489,""y"":469,""move_time"":1692},{""src"":""https://test12345.live/images/schematic_sequence/interview_scheme/interview_scheme_4.png"",""x"":851,""y"":469,""move_time"":9998},{""src"":""https://test12345.live/images/schematic_sequence/interview_scheme/interview_scheme_5.png"",""x"":1032,""y"":469,""move_time"":4361},{""src"":""https://test12345.live/images/schematic_sequence/interview_scheme/interview_scheme_7.png"",""x"":307,""y"":650,""move_time"":4732},{""src"":""https://test12345.live/images/schematic_sequence/interview_scheme/interview_scheme_8.png"",""x"":670,""y"":61,""move_time"":1803},{""src"":""https://test12345.live/images/schematic_sequence/interview_scheme/interview_scheme_7.png"",""x"":489,""y"":650,""move_time"":2259},{""src"":""https://test12345.live/images/schematic_sequence/interview_scheme/interview_scheme_6.png"",""x"":307,""y"":650,""move_time"":1671},{""src"":""https://test12345.live/images/schematic_sequence/interview_scheme/interview_scheme_8.png"",""x"":670,""y"":650,""move_time"":2082},{""src"":""https://test12345.live/images/schematic_sequence/interview_scheme/interview_scheme_9.png"",""x"":851,""y"":650,""move_time"":2108},{""src"":""https://test12345.live/images/schematic_sequence/interview_scheme/interview_scheme_ten.png"",""x"":1032,""y"":650,""move_time"":1500}]","[{""src"":""https://test12345.live/images/schematic_sequence/interview_scheme/interview_scheme_1.png"",""x"":307,""y"":469},{""src"":""https://test12345.live/images/schematic_sequence/interview_scheme/interview_scheme_6.png"",""x"":307,""y"":650},{""src"":""https://test12345.live/images/schematic_sequence/interview_scheme/interview_scheme_2.png"",""x"":489,""y"":469},{""src"":""https://test12345.live/images/schematic_sequence/interview_scheme/interview_scheme_7.png"",""x"":489,""y"":650},{""src"":""https://test12345.live/images/schematic_sequence/interview_scheme/interview_scheme_3.png"",""x"":670,""y"":469},{""src"":""https://test12345.live/images/schematic_sequence/interview_scheme/interview_scheme_8.png"",""x"":670,""y"":650},{""src"":""https://test12345.live/images/schematic_sequence/interview_scheme/interview_scheme_4.png"",""x"":851,""y"":469},{""src"":""https://test12345.live/images/schematic_sequence/interview_scheme/interview_scheme_9.png"",""x"":851,""y"":650},{""src"":""https://test12345.live/images/schematic_sequence/interview_scheme/interview_scheme_5.png"",""x"":1032,""y"":469},{""src"":""https://test12345.live/images/schematic_sequence/interview_scheme/interview_scheme_ten.png"",""x"":1032,""y"":650}]","13",""
"","order","22","980592","0.0-22.0","68DFEC98E3FC47878C5DAB911D0DFA18","conditionB","","26141","[""semantic_sequence/market_semantic/market_semantic_5"",""semantic_sequence/market_semantic/market_semantic_1"",""semantic_sequence/market_semantic/market_semantic_8"",""semantic_sequence/market_semantic/market_semantic_4"",""semantic_sequence/market_semantic/market_semantic_7"",""semantic_sequence/market_semantic/market_semantic_9"",""semantic_sequence/market_semantic/market_semantic_2"",""semantic_sequence/market_semantic/market_semantic_6"",""semantic_sequence/market_semantic/market_semantic_ten"",""semantic_sequence/market_semantic/market_semantic_3""]","[{""src"":""https://test12345.live/images/semantic_sequence/market_semantic/market_semantic_1.png"",""x"":307,""y"":469,""move_time"":10383},{""src"":""https://test12345.live/images/semantic_sequence/market_semantic/market_semantic_2.png"",""x"":489,""y"":469,""move_time"":1056},{""src"":""https://test12345.live/images/semantic_sequence/market_semantic/market_semantic_3.png"",""x"":670,""y"":469,""move_time"":1352},{""src"":""https://test12345.live/images/semantic_sequence/market_semantic/market_semantic_4.png"",""x"":851,""y"":469,""move_time"":1985},{""src"":""https://test12345.live/images/semantic_sequence/market_semantic/market_semantic_5.png"",""x"":1032,""y"":469,""move_time"":1746},{""src"":""https://test12345.live/images/semantic_sequence/market_semantic/market_semantic_6.png"",""x"":307,""y"":650,""move_time"":2532},{""src"":""https://test12345.live/images/semantic_sequence/market_semantic/market_semantic_7.png"",""x"":489,""y"":650,""move_time"":1883},{""src"":""https://test12345.live/images/semantic_sequence/market_semantic/market_semantic_8.png"",""x"":670,""y"":650,""move_time"":1572},{""src"":""https://test12345.live/images/semantic_sequence/market_semantic/market_semantic_9.png"",""x"":851,""y"":650,""move_time"":1471},{""src"":""https://test12345.live/images/semantic_sequence/market_semantic/market_semantic_ten.png"",""x"":1032,""y"":650,""move_time"":1306}]","[{""src"":""https://test12345.live/images/semantic_sequence/market_semantic/market_semantic_1.png"",""x"":307,""y"":469},{""src"":""https://test12345.live/images/semantic_sequence/market_semantic/market_semantic_6.png"",""x"":307,""y"":650},{""src"":""https://test12345.live/images/semantic_sequence/market_semantic/market_semantic_2.png"",""x"":489,""y"":469},{""src"":""https://test12345.live/images/semantic_sequence/market_semantic/market_semantic_7.png"",""x"":489,""y"":650},{""src"":""https://test12345.live/images/semantic_sequence/market_semantic/market_semantic_3.png"",""x"":670,""y"":469},{""src"":""https://test12345.live/images/semantic_sequence/market_semantic/market_semantic_8.png"",""x"":670,""y"":650},{""src"":""https://test12345.live/images/semantic_sequence/market_semantic/market_semantic_4.png"",""x"":851,""y"":469},{""src"":""https://test12345.live/images/semantic_sequence/market_semantic/market_semantic_9.png"",""x"":851,""y"":650},{""src"":""https://test12345.live/images/semantic_sequence/market_semantic/market_semantic_5.png"",""x"":1032,""y"":469},{""src"":""https://test12345.live/images/semantic_sequence/market_semantic/market_semantic_ten.png"",""x"":1032,""y"":650}]","10",""
"","order","23","1012528","0.0-23.0","68DFEC98E3FC47878C5DAB911D0DFA18","conditionB","","31935","[""semantic_sequence/self_care_activities_semantic/self_care_activities_semantic_4"",""semantic_sequence/self_care_activities_semantic/self_care_activities_semantic_9"",""semantic_sequence/self_care_activities_semantic/self_care_activities_semantic_2"",""semantic_sequence/self_care_activities_semantic/semantic_self_care_activities_semantic_9"",""semantic_sequence/self_care_activities_semantic/self_care_activities_semantic_8"",""semantic_sequence/self_care_activities_semantic/self_care_activities_semantic_1"",""semantic_sequence/self_care_activities_semantic/self_care_activities_semantic_5"",""semantic_sequence/self_care_activities_semantic/self_care_activities_semantic_7"",""semantic_sequence/self_care_activities_semantic/self_care_activities_semantic_6"",""semantic_sequence/self_care_activities_semantic/self_care_activities_semantic_3""]","[{""src"":""https://test12345.live/images/semantic_sequence/self_care_activities_semantic/semantic_self_care_activities_semantic_9.png"",""x"":851,""y"":650,""move_time"":4675},{""src"":""https://test12345.live/images/semantic_sequence/self_care_activities_semantic/self_care_activities_semantic_3.png"",""x"":670,""y"":469,""move_time"":1617},{""src"":""https://test12345.live/images/semantic_sequence/self_care_activities_semantic/self_care_activities_semantic_6.png"",""x"":307,""y"":650,""move_time"":1889},{""src"":""https://test12345.live/images/semantic_sequence/self_care_activities_semantic/self_care_activities_semantic_7.png"",""x"":489,""y"":650,""move_time"":1787},{""src"":""https://test12345.live/images/semantic_sequence/self_care_activities_semantic/self_care_activities_semantic_5.png"",""x"":1032,""y"":469,""move_time"":1662},{""src"":""https://test12345.live/images/semantic_sequence/self_care_activities_semantic/self_care_activities_semantic_8.png"",""x"":670,""y"":650,""move_time"":1847},{""src"":""https://test12345.live/images/semantic_sequence/self_care_activities_semantic/self_care_activities_semantic_2.png"",""x"":489,""y"":469,""move_time"":1284},{""src"":""https://test12345.live/images/semantic_sequence/self_care_activities_semantic/self_care_activities_semantic_1.png"",""x"":307,""y"":469,""move_time"":1046},{""src"":""https://test12345.live/images/semantic_sequence/self_care_activities_semantic/self_care_activities_semantic_4.png"",""x"":307,""y"":469,""move_time"":1035},{""src"":""https://test12345.live/images/semantic_sequence/self_care_activities_semantic/self_care_activities_semantic_1.png"",""x"":851,""y"":469,""move_time"":1665},{""src"":""https://test12345.live/images/semantic_sequence/self_care_activities_semantic/self_care_activities_semantic_9.png"",""x"":1032,""y"":650,""move_time"":7255}]","[{""src"":""https://test12345.live/images/semantic_sequence/self_care_activities_semantic/self_care_activities_semantic_4.png"",""x"":307,""y"":469},{""src"":""https://test12345.live/images/semantic_sequence/self_care_activities_semantic/self_care_activities_semantic_6.png"",""x"":307,""y"":650},{""src"":""https://test12345.live/images/semantic_sequence/self_care_activities_semantic/self_care_activities_semantic_2.png"",""x"":489,""y"":469},{""src"":""https://test12345.live/images/semantic_sequence/self_care_activities_semantic/self_care_activities_semantic_7.png"",""x"":489,""y"":650},{""src"":""https://test12345.live/images/semantic_sequence/self_care_activities_semantic/self_care_activities_semantic_3.png"",""x"":670,""y"":469},{""src"":""https://test12345.live/images/semantic_sequence/self_care_activities_semantic/self_care_activities_semantic_8.png"",""x"":670,""y"":650},{""src"":""https://test12345.live/images/semantic_sequence/self_care_activities_semantic/self_care_activities_semantic_1.png"",""x"":851,""y"":469},{""src"":""https://test12345.live/images/semantic_sequence/self_care_activities_semantic/semantic_self_care_activities_semantic_9.png"",""x"":851,""y"":650},{""src"":""https://test12345.live/images/semantic_sequence/self_care_activities_semantic/self_care_activities_semantic_5.png"",""x"":1032,""y"":469},{""src"":""https://test12345.live/images/semantic_sequence/self_care_activities_semantic/self_care_activities_semantic_9.png"",""x"":1032,""y"":650}]","11",""
"","order","24","1087918","0.0-24.0","68DFEC98E3FC47878C5DAB911D0DFA18","conditionB","","75390","[""semantic_sequence/cat_care_semantic/cat_care_semantic_2"",""semantic_sequence/cat_care_semantic/cat_care_semantic_1"",""semantic_sequence/cat_care_semantic/cat_care_semantic_9"",""semantic_sequence/cat_care_semantic/cat_care_semantic_8"",""semantic_sequence/cat_care_semantic/cat_care_semantic_6"",""semantic_sequence/cat_care_semantic/cat_care_semantic_5"",""semantic_sequence/cat_care_semantic/cat_care_semantic_7"",""semantic_sequence/cat_care_semantic/cat_care_semantic_3"",""semantic_sequence/cat_care_semantic/cat_care_semantic_ten"",""semantic_sequence/cat_care_semantic/cat_care_semantic_4""]","[{""src"":""https://test12345.live/images/semantic_sequence/cat_care_semantic/cat_care_semantic_3.png"",""x"":489,""y"":469,""move_time"":19436},{""src"":""https://test12345.live/images/semantic_sequence/cat_care_semantic/cat_care_semantic_3.png"",""x"":489,""y"":469,""move_time"":6240},{""src"":""https://test12345.live/images/semantic_sequence/cat_care_semantic/cat_care_semantic_4.png"",""x"":670,""y"":469,""move_time"":10657},{""src"":""https://test12345.live/images/semantic_sequence/cat_care_semantic/cat_care_semantic_5.png"",""x"":851,""y"":469,""move_time"":2839},{""src"":""https://test12345.live/images/semantic_sequence/cat_care_semantic/cat_care_semantic_6.png"",""x"":1032,""y"":469,""move_time"":3833},{""src"":""https://test12345.live/images/semantic_sequence/cat_care_semantic/cat_care_semantic_7.png"",""x"":307,""y"":650,""move_time"":2791},{""src"":""https://test12345.live/images/semantic_sequence/cat_care_semantic/cat_care_semantic_8.png"",""x"":489,""y"":650,""move_time"":1679},{""src"":""https://test12345.live/images/semantic_sequence/cat_care_semantic/cat_care_semantic_9.png"",""x"":670,""y"":650,""move_time"":2152},{""src"":""https://test12345.live/images/semantic_sequence/cat_care_semantic/cat_care_semantic_ten.png"",""x"":851,""y"":650,""move_time"":1617},{""src"":""https://test12345.live/images/semantic_sequence/cat_care_semantic/cat_care_semantic_1.png"",""x"":307,""y"":469,""move_time"":7963},{""src"":""https://test12345.live/images/semantic_sequence/cat_care_semantic/cat_care_semantic_2.png"",""x"":1032,""y"":650,""move_time"":13504}]","[{""src"":""https://test12345.live/images/semantic_sequence/cat_care_semantic/cat_care_semantic_1.png"",""x"":307,""y"":469},{""src"":""https://test12345.live/images/semantic_sequence/cat_care_semantic/cat_care_semantic_7.png"",""x"":307,""y"":650},{""src"":""https://test12345.live/images/semantic_sequence/cat_care_semantic/cat_care_semantic_3.png"",""x"":489,""y"":469},{""src"":""https://test12345.live/images/semantic_sequence/cat_care_semantic/cat_care_semantic_8.png"",""x"":489,""y"":650},{""src"":""https://test12345.live/images/semantic_sequence/cat_care_semantic/cat_care_semantic_4.png"",""x"":670,""y"":469},{""src"":""https://test12345.live/images/semantic_sequence/cat_care_semantic/cat_care_semantic_9.png"",""x"":670,""y"":650},{""src"":""https://test12345.live/images/semantic_sequence/cat_care_semantic/cat_care_semantic_5.png"",""x"":851,""y"":469},{""src"":""https://test12345.live/images/semantic_sequence/cat_care_semantic/cat_care_semantic_ten.png"",""x"":851,""y"":650},{""src"":""https://test12345.live/images/semantic_sequence/cat_care_semantic/cat_care_semantic_6.png"",""x"":1032,""y"":469},{""src"":""https://test12345.live/images/semantic_sequence/cat_care_semantic/cat_care_semantic_2.png"",""x"":1032,""y"":650}]","11",""
"","order","25","1137388","0.0-25.0","68DFEC98E3FC47878C5DAB911D0DFA18","conditionB","","49470","[""schematic_sequence/supermarket_scheme/supermarket_scheme_4"",""schematic_sequence/supermarket_scheme/supermarket_scheme_1"",""schematic_sequence/supermarket_scheme/supermarket_scheme_ten"",""schematic_sequence/supermarket_scheme/supermarket_scheme_6"",""schematic_sequence/supermarket_scheme/supermarket_scheme_3"",""schematic_sequence/supermarket_scheme/supermarket_scheme_5"",""schematic_sequence/supermarket_scheme/supermarket_scheme_2"",""schematic_sequence/supermarket_scheme/supermarket_scheme_9"",""schematic_sequence/supermarket_scheme/supermarket_scheme_8"",""schematic_sequence/supermarket_scheme/supermarket_scheme_7""]","[{""src"":""https://test12345.live/images/schematic_sequence/supermarket_scheme/supermarket_scheme_1.png"",""x"":307,""y"":469,""move_time"":12585},{""src"":""https://test12345.live/images/schematic_sequence/supermarket_scheme/supermarket_scheme_3.png"",""x"":489,""y"":469,""move_time"":7685},{""src"":""https://test12345.live/images/schematic_sequence/supermarket_scheme/supermarket_scheme_4.png"",""x"":307,""y"":61,""move_time"":2733},{""src"":""https://test12345.live/images/schematic_sequence/supermarket_scheme/supermarket_scheme_2.png"",""x"":670,""y"":469,""move_time"":1621},{""src"":""https://test12345.live/images/schematic_sequence/supermarket_scheme/supermarket_scheme_4.png"",""x"":851,""y"":469,""move_time"":7087},{""src"":""https://test12345.live/images/schematic_sequence/supermarket_scheme/supermarket_scheme_5.png"",""x"":1032,""y"":469,""move_time"":2934},{""src"":""https://test12345.live/images/schematic_sequence/supermarket_scheme/supermarket_scheme_6.png"",""x"":307,""y"":650,""move_time"":8499},{""src"":""https://test12345.live/images/schematic_sequence/supermarket_scheme/supermarket_scheme_7.png"",""x"":489,""y"":650,""move_time"":2118},{""src"":""https://test12345.live/images/schematic_sequence/supermarket_scheme/supermarket_scheme_8.png"",""x"":670,""y"":650,""move_time"":1159},{""src"":""https://test12345.live/images/schematic_sequence/supermarket_scheme/supermarket_scheme_9.png"",""x"":851,""y"":650,""move_time"":1062},{""src"":""https://test12345.live/images/schematic_sequence/supermarket_scheme/supermarket_scheme_ten.png"",""x"":1032,""y"":650,""move_time"":1217}]","[{""src"":""https://test12345.live/images/schematic_sequence/supermarket_scheme/supermarket_scheme_1.png"",""x"":307,""y"":469},{""src"":""https://test12345.live/images/schematic_sequence/supermarket_scheme/supermarket_scheme_6.png"",""x"":307,""y"":650},{""src"":""https://test12345.live/images/schematic_sequence/supermarket_scheme/supermarket_scheme_3.png"",""x"":489,""y"":469},{""src"":""https://test12345.live/images/schematic_sequence/supermarket_scheme/supermarket_scheme_7.png"",""x"":489,""y"":650},{""src"":""https://test12345.live/images/schematic_sequence/supermarket_scheme/supermarket_scheme_2.png"",""x"":670,""y"":469},{""src"":""https://test12345.live/images/schematic_sequence/supermarket_scheme/supermarket_scheme_8.png"",""x"":670,""y"":650},{""src"":""https://test12345.live/images/schematic_sequence/supermarket_scheme/supermarket_scheme_4.png"",""x"":851,""y"":469},{""src"":""https://test12345.live/images/schematic_sequence/supermarket_scheme/supermarket_scheme_9.png"",""x"":851,""y"":650},{""src"":""https://test12345.live/images/schematic_sequence/supermarket_scheme/supermarket_scheme_5.png"",""x"":1032,""y"":469},{""src"":""https://test12345.live/images/schematic_sequence/supermarket_scheme/supermarket_scheme_ten.png"",""x"":1032,""y"":650}]","11",""
"","order","26","1158707","0.0-26.0","68DFEC98E3FC47878C5DAB911D0DFA18","conditionB","","21318","[""semantic_sequence/traveling_semantic/traveling_semantic_7"",""semantic_sequence/traveling_semantic/traveling_semantic_1"",""semantic_sequence/traveling_semantic/traveling_semantic_2"",""semantic_sequence/traveling_semantic/traveling_semantic_5"",""semantic_sequence/traveling_semantic/traveling_semantic_3"",""semantic_sequence/traveling_semantic/traveling_semantic_8"",""semantic_sequence/traveling_semantic/traveling_semantic_ten"",""semantic_sequence/traveling_semantic/traveling_semantic_4"",""semantic_sequence/traveling_semantic/traveling_semantic_9"",""semantic_sequence/traveling_semantic/traveling_semantic_6""]","[{""src"":""https://test12345.live/images/semantic_sequence/traveling_semantic/traveling_semantic_1.png"",""x"":307,""y"":469,""move_time"":4145},{""src"":""https://test12345.live/images/semantic_sequence/traveling_semantic/traveling_semantic_2.png"",""x"":489,""y"":469,""move_time"":1361},{""src"":""https://test12345.live/images/semantic_sequence/traveling_semantic/traveling_semantic_3.png"",""x"":670,""y"":469,""move_time"":3522},{""src"":""https://test12345.live/images/semantic_sequence/traveling_semantic/traveling_semantic_4.png"",""x"":851,""y"":469,""move_time"":1178},{""src"":""https://test12345.live/images/semantic_sequence/traveling_semantic/traveling_semantic_5.png"",""x"":1032,""y"":469,""move_time"":1265},{""src"":""https://test12345.live/images/semantic_sequence/traveling_semantic/traveling_semantic_6.png"",""x"":307,""y"":650,""move_time"":1457},{""src"":""https://test12345.live/images/semantic_sequence/traveling_semantic/traveling_semantic_7.png"",""x"":489,""y"":650,""move_time"":1248},{""src"":""https://test12345.live/images/semantic_sequence/traveling_semantic/traveling_semantic_8.png"",""x"":670,""y"":650,""move_time"":3422},{""src"":""https://test12345.live/images/semantic_sequence/traveling_semantic/traveling_semantic_9.png"",""x"":851,""y"":650,""move_time"":1493},{""src"":""https://test12345.live/images/semantic_sequence/traveling_semantic/traveling_semantic_ten.png"",""x"":1032,""y"":650,""move_time"":1323}]","[{""src"":""https://test12345.live/images/semantic_sequence/traveling_semantic/traveling_semantic_1.png"",""x"":307,""y"":469},{""src"":""https://test12345.live/images/semantic_sequence/traveling_semantic/traveling_semantic_6.png"",""x"":307,""y"":650},{""src"":""https://test12345.live/images/semantic_sequence/traveling_semantic/traveling_semantic_2.png"",""x"":489,""y"":469},{""src"":""https://test12345.live/images/semantic_sequence/traveling_semantic/traveling_semantic_7.png"",""x"":489,""y"":650},{""src"":""https://test12345.live/images/semantic_sequence/traveling_semantic/traveling_semantic_3.png"",""x"":670,""y"":469},{""src"":""https://test12345.live/images/semantic_sequence/traveling_semantic/traveling_semantic_8.png"",""x"":670,""y"":650},{""src"":""https://test12345.live/images/semantic_sequence/traveling_semantic/traveling_semantic_4.png"",""x"":851,""y"":469},{""src"":""https://test12345.live/images/semantic_sequence/traveling_semantic/traveling_semantic_9.png"",""x"":851,""y"":650},{""src"":""https://test12345.live/images/semantic_sequence/traveling_semantic/traveling_semantic_5.png"",""x"":1032,""y"":469},{""src"":""https://test12345.live/images/semantic_sequence/traveling_semantic/traveling_semantic_ten.png"",""x"":1032,""y"":650}]","10",""
"","order","27","1182779","0.0-27.0","68DFEC98E3FC47878C5DAB911D0DFA18","conditionB","","24072","[""semantic_sequence/physical_activity_semantic/physical_activity_semantic_3"",""semantic_sequence/physical_activity_semantic/physical_activity_semantic_9"",""semantic_sequence/physical_activity_semantic/physical_activity_semantic_8"",""semantic_sequence/physical_activity_semantic/physical_activity_semantic_7"",""semantic_sequence/physical_activity_semantic/physical_activity_semantic_2"",""semantic_sequence/physical_activity_semantic/physical_activity_semantic_6"",""semantic_sequence/physical_activity_semantic/physical_activity_semantic_1"",""semantic_sequence/physical_activity_semantic/physical_activity_semantic_ten"",""semantic_sequence/physical_activity_semantic/physical_activity_semantic_5"",""semantic_sequence/physical_activity_semantic/physical_activity_semantic_4""]","[{""src"":""https://test12345.live/images/semantic_sequence/physical_activity_semantic/physical_activity_semantic_1.png"",""x"":307,""y"":469,""move_time"":5013},{""src"":""https://test12345.live/images/semantic_sequence/physical_activity_semantic/physical_activity_semantic_2.png"",""x"":489,""y"":469,""move_time"":4014},{""src"":""https://test12345.live/images/semantic_sequence/physical_activity_semantic/physical_activity_semantic_3.png"",""x"":670,""y"":469,""move_time"":1602},{""src"":""https://test12345.live/images/semantic_sequence/physical_activity_semantic/physical_activity_semantic_4.png"",""x"":851,""y"":469,""move_time"":1670},{""src"":""https://test12345.live/images/semantic_sequence/physical_activity_semantic/physical_activity_semantic_5.png"",""x"":1032,""y"":469,""move_time"":1217},{""src"":""https://test12345.live/images/semantic_sequence/physical_activity_semantic/physical_activity_semantic_6.png"",""x"":307,""y"":650,""move_time"":1883},{""src"":""https://test12345.live/images/semantic_sequence/physical_activity_semantic/physical_activity_semantic_7.png"",""x"":489,""y"":650,""move_time"":1647},{""src"":""https://test12345.live/images/semantic_sequence/physical_activity_semantic/physical_activity_semantic_8.png"",""x"":670,""y"":650,""move_time"":3546},{""src"":""https://test12345.live/images/semantic_sequence/physical_activity_semantic/physical_activity_semantic_9.png"",""x"":851,""y"":650,""move_time"":1369},{""src"":""https://test12345.live/images/semantic_sequence/physical_activity_semantic/physical_activity_semantic_ten.png"",""x"":1032,""y"":650,""move_time"":1230}]","[{""src"":""https://test12345.live/images/semantic_sequence/physical_activity_semantic/physical_activity_semantic_1.png"",""x"":307,""y"":469},{""src"":""https://test12345.live/images/semantic_sequence/physical_activity_semantic/physical_activity_semantic_6.png"",""x"":307,""y"":650},{""src"":""https://test12345.live/images/semantic_sequence/physical_activity_semantic/physical_activity_semantic_2.png"",""x"":489,""y"":469},{""src"":""https://test12345.live/images/semantic_sequence/physical_activity_semantic/physical_activity_semantic_7.png"",""x"":489,""y"":650},{""src"":""https://test12345.live/images/semantic_sequence/physical_activity_semantic/physical_activity_semantic_3.png"",""x"":670,""y"":469},{""src"":""https://test12345.live/images/semantic_sequence/physical_activity_semantic/physical_activity_semantic_8.png"",""x"":670,""y"":650},{""src"":""https://test12345.live/images/semantic_sequence/physical_activity_semantic/physical_activity_semantic_4.png"",""x"":851,""y"":469},{""src"":""https://test12345.live/images/semantic_sequence/physical_activity_semantic/physical_activity_semantic_9.png"",""x"":851,""y"":650},{""src"":""https://test12345.live/images/semantic_sequence/physical_activity_semantic/physical_activity_semantic_5.png"",""x"":1032,""y"":469},{""src"":""https://test12345.live/images/semantic_sequence/physical_activity_semantic/physical_activity_semantic_ten.png"",""x"":1032,""y"":650}]","10",""
"","survey-text","28","1189049","0.0-28.0","68DFEC98E3FC47878C5DAB911D0DFA18","conditionB","","6267.699999988079","","","","","{""Q0"":""33""}"
"","survey-text","29","1196429","0.0-29.0","68DFEC98E3FC47878C5DAB911D0DFA18","conditionB","","7376.300000011921","","","","","{""Q0"":""MALE""}"
"","instructions","30","1200477","0.0-30.0","68DFEC98E3FC47878C5DAB911D0DFA18","conditionB","[{""page_index"":0,""viewing_time"":4046.899999976158}]","4047.199999988079","","","","",""
