"success","trial_type","trial_index","time_elapsed","internal_node_id","subject","condition","view_history","rt","initial_locations","moves","final_locations_3","number_of_moves","responses"
"true","fullscreen","0","3989","0.0-0.0","87F5A67EB12549BA9F2ACB11087C8F82","conditionA","","","","","","",""
"","instructions","1","63751","0.0-1.0","87F5A67EB12549BA9F2ACB11087C8F82","conditionA","[{""page_index"":0,""viewing_time"":31419.700000001118},{""page_index"":1,""viewing_time"":6575.699999999255},{""page_index"":2,""viewing_time"":1318},{""page_index"":3,""viewing_time"":19076.699999999255},{""page_index"":4,""viewing_time"":1373.5}]","59764.40000000037","","","","",""
"","order","2","76794","0.0-2.0","87F5A67EB12549BA9F2ACB11087C8F82","conditionA","","13040","[""instructions/movie_4"",""instructions/movie_3"",""instructions/movie_2"",""instructions/movie_1"",""blank"",""blank"",""blank"",""blank"",""blank"",""blank""]","[{""src"":""https://test12345.live/images/instructions/movie_2.png"",""x"":288,""y"":487,""move_time"":6443},{""src"":""https://test12345.live/images/instructions/movie_1.png"",""x"":457,""y"":487,""move_time"":2198},{""src"":""https://test12345.live/images/instructions/movie_3.png"",""x"":627,""y"":487,""move_time"":1850},{""src"":""https://test12345.live/images/instructions/movie_4.png"",""x"":796,""y"":487,""move_time"":1734}]","[{""src"":""https://test12345.live/images/instructions/movie_2.png"",""x"":288,""y"":487},{""src"":""https://test12345.live/images/blank6.jpg"",""x"":288,""y"":657},{""src"":""https://test12345.live/images/instructions/movie_1.png"",""x"":457,""y"":487},{""src"":""https://test12345.live/images/blank7.jpg"",""x"":457,""y"":657},{""src"":""https://test12345.live/images/instructions/movie_3.png"",""x"":627,""y"":487},{""src"":""https://test12345.live/images/blank8.jpg"",""x"":627,""y"":657},{""src"":""https://test12345.live/images/instructions/movie_4.png"",""x"":796,""y"":487},{""src"":""https://test12345.live/images/blank9.jpg"",""x"":796,""y"":657},{""src"":""https://test12345.live/images/blank5.jpg"",""x"":966,""y"":487},{""src"":""https://test12345.live/images/blank10.jpg"",""x"":966,""y"":657}]","4",""
"","instructions","3","81850","0.0-3.0","87F5A67EB12549BA9F2ACB11087C8F82","conditionA","[{""page_index"":0,""viewing_time"":5055.4000000003725}]","5055.800000000745","","","","",""
"","order","4","137800","0.0-4.0","87F5A67EB12549BA9F2ACB11087C8F82","conditionA","","55951","[""semantic_sequence/cat_care_semantic/cat_care_semantic_4"",""semantic_sequence/cat_care_semantic/cat_care_semantic_7"",""semantic_sequence/cat_care_semantic/cat_care_semantic_3"",""semantic_sequence/cat_care_semantic/cat_care_semantic_ten"",""semantic_sequence/cat_care_semantic/cat_care_semantic_8"",""semantic_sequence/cat_care_semantic/cat_care_semantic_9"",""semantic_sequence/cat_care_semantic/cat_care_semantic_1"",""semantic_sequence/cat_care_semantic/cat_care_semantic_5"",""semantic_sequence/cat_care_semantic/cat_care_semantic_6"",""semantic_sequence/cat_care_semantic/cat_care_semantic_2""]","[{""src"":""https://test12345.live/images/semantic_sequence/cat_care_semantic/cat_care_semantic_2.png"",""x"":288,""y"":487,""move_time"":29175},{""src"":""https://test12345.live/images/semantic_sequence/cat_care_semantic/cat_care_semantic_3.png"",""x"":457,""y"":487,""move_time"":2250},{""src"":""https://test12345.live/images/semantic_sequence/cat_care_semantic/cat_care_semantic_4.png"",""x"":627,""y"":487,""move_time"":2534},{""src"":""https://test12345.live/images/semantic_sequence/cat_care_semantic/cat_care_semantic_5.png"",""x"":796,""y"":487,""move_time"":1450},{""src"":""https://test12345.live/images/semantic_sequence/cat_care_semantic/cat_care_semantic_6.png"",""x"":966,""y"":487,""move_time"":1767},{""src"":""https://test12345.live/images/semantic_sequence/cat_care_semantic/cat_care_semantic_1.png"",""x"":288,""y"":487,""move_time"":1666},{""src"":""https://test12345.live/images/semantic_sequence/cat_care_semantic/cat_care_semantic_2.png"",""x"":457,""y"":487,""move_time"":4099},{""src"":""https://test12345.live/images/semantic_sequence/cat_care_semantic/cat_care_semantic_3.png"",""x"":627,""y"":487,""move_time"":1199},{""src"":""https://test12345.live/images/semantic_sequence/cat_care_semantic/cat_care_semantic_4.png"",""x"":796,""y"":487,""move_time"":1351},{""src"":""https://test12345.live/images/semantic_sequence/cat_care_semantic/cat_care_semantic_5.png"",""x"":966,""y"":487,""move_time"":1183},{""src"":""https://test12345.live/images/semantic_sequence/cat_care_semantic/cat_care_semantic_6.png"",""x"":288,""y"":657,""move_time"":1635},{""src"":""https://test12345.live/images/semantic_sequence/cat_care_semantic/cat_care_semantic_7.png"",""x"":457,""y"":657,""move_time"":1532},{""src"":""https://test12345.live/images/semantic_sequence/cat_care_semantic/cat_care_semantic_8.png"",""x"":627,""y"":657,""move_time"":2084},{""src"":""https://test12345.live/images/semantic_sequence/cat_care_semantic/cat_care_semantic_9.png"",""x"":796,""y"":657,""move_time"":1515},{""src"":""https://test12345.live/images/semantic_sequence/cat_care_semantic/cat_care_semantic_ten.png"",""x"":966,""y"":657,""move_time"":1451}]","[{""src"":""https://test12345.live/images/semantic_sequence/cat_care_semantic/cat_care_semantic_1.png"",""x"":288,""y"":487},{""src"":""https://test12345.live/images/semantic_sequence/cat_care_semantic/cat_care_semantic_6.png"",""x"":288,""y"":657},{""src"":""https://test12345.live/images/semantic_sequence/cat_care_semantic/cat_care_semantic_2.png"",""x"":457,""y"":487},{""src"":""https://test12345.live/images/semantic_sequence/cat_care_semantic/cat_care_semantic_7.png"",""x"":457,""y"":657},{""src"":""https://test12345.live/images/semantic_sequence/cat_care_semantic/cat_care_semantic_3.png"",""x"":627,""y"":487},{""src"":""https://test12345.live/images/semantic_sequence/cat_care_semantic/cat_care_semantic_8.png"",""x"":627,""y"":657},{""src"":""https://test12345.live/images/semantic_sequence/cat_care_semantic/cat_care_semantic_4.png"",""x"":796,""y"":487},{""src"":""https://test12345.live/images/semantic_sequence/cat_care_semantic/cat_care_semantic_9.png"",""x"":796,""y"":657},{""src"":""https://test12345.live/images/semantic_sequence/cat_care_semantic/cat_care_semantic_5.png"",""x"":966,""y"":487},{""src"":""https://test12345.live/images/semantic_sequence/cat_care_semantic/cat_care_semantic_ten.png"",""x"":966,""y"":657}]","15",""
"","order","5","165868","0.0-5.0","87F5A67EB12549BA9F2ACB11087C8F82","conditionA","","28068","[""semantic_sequence/exploring_nature_semantic/exploring_nature_semantic_7"",""semantic_sequence/exploring_nature_semantic/exploring_nature_semantic_4"",""semantic_sequence/exploring_nature_semantic/exploring_nature_semantic_9"",""semantic_sequence/exploring_nature_semantic/exploring_nature_semantic_1"",""semantic_sequence/exploring_nature_semantic/exploring_nature_semantic_2"",""semantic_sequence/exploring_nature_semantic/exploring_nature_semantic_3"",""semantic_sequence/exploring_nature_semantic/exploring_nature_semantic_5"",""semantic_sequence/exploring_nature_semantic/exploring_nature_semantic_6"",""semantic_sequence/exploring_nature_semantic/exploring_nature_semantic_8"",""semantic_sequence/exploring_nature_semantic/exploring_nature_semantic_ten""]","[{""src"":""https://test12345.live/images/semantic_sequence/exploring_nature_semantic/exploring_nature_semantic_1.png"",""x"":288,""y"":487,""move_time"":11689},{""src"":""https://test12345.live/images/semantic_sequence/exploring_nature_semantic/exploring_nature_semantic_2.png"",""x"":457,""y"":487,""move_time"":2233},{""src"":""https://test12345.live/images/semantic_sequence/exploring_nature_semantic/exploring_nature_semantic_3.png"",""x"":627,""y"":487,""move_time"":2066},{""src"":""https://test12345.live/images/semantic_sequence/exploring_nature_semantic/exploring_nature_semantic_4.png"",""x"":796,""y"":487,""move_time"":1985},{""src"":""https://test12345.live/images/semantic_sequence/exploring_nature_semantic/exploring_nature_semantic_5.png"",""x"":966,""y"":487,""move_time"":2466},{""src"":""https://test12345.live/images/semantic_sequence/exploring_nature_semantic/exploring_nature_semantic_6.png"",""x"":288,""y"":657,""move_time"":1466},{""src"":""https://test12345.live/images/semantic_sequence/exploring_nature_semantic/exploring_nature_semantic_7.png"",""x"":457,""y"":657,""move_time"":1301},{""src"":""https://test12345.live/images/semantic_sequence/exploring_nature_semantic/exploring_nature_semantic_8.png"",""x"":627,""y"":657,""move_time"":1433},{""src"":""https://test12345.live/images/semantic_sequence/exploring_nature_semantic/exploring_nature_semantic_9.png"",""x"":796,""y"":657,""move_time"":1334},{""src"":""https://test12345.live/images/semantic_sequence/exploring_nature_semantic/exploring_nature_semantic_ten.png"",""x"":966,""y"":657,""move_time"":1233}]","[{""src"":""https://test12345.live/images/semantic_sequence/exploring_nature_semantic/exploring_nature_semantic_1.png"",""x"":288,""y"":487},{""src"":""https://test12345.live/images/semantic_sequence/exploring_nature_semantic/exploring_nature_semantic_6.png"",""x"":288,""y"":657},{""src"":""https://test12345.live/images/semantic_sequence/exploring_nature_semantic/exploring_nature_semantic_2.png"",""x"":457,""y"":487},{""src"":""https://test12345.live/images/semantic_sequence/exploring_nature_semantic/exploring_nature_semantic_7.png"",""x"":457,""y"":657},{""src"":""https://test12345.live/images/semantic_sequence/exploring_nature_semantic/exploring_nature_semantic_3.png"",""x"":627,""y"":487},{""src"":""https://test12345.live/images/semantic_sequence/exploring_nature_semantic/exploring_nature_semantic_8.png"",""x"":627,""y"":657},{""src"":""https://test12345.live/images/semantic_sequence/exploring_nature_semantic/exploring_nature_semantic_4.png"",""x"":796,""y"":487},{""src"":""https://test12345.live/images/semantic_sequence/exploring_nature_semantic/exploring_nature_semantic_9.png"",""x"":796,""y"":657},{""src"":""https://test12345.live/images/semantic_sequence/exploring_nature_semantic/exploring_nature_semantic_5.png"",""x"":966,""y"":487},{""src"":""https://test12345.live/images/semantic_sequence/exploring_nature_semantic/exploring_nature_semantic_ten.png"",""x"":966,""y"":657}]","10",""
"","order","6","203565","0.0-6.0","87F5A67EB12549BA9F2ACB11087C8F82","conditionA","","37698","[""causal_sequence/saving_a_cat_causal/saving_a_cat_causal_9"",""causal_sequence/saving_a_cat_causal/saving_a_cat_causal_1"",""causal_sequence/saving_a_cat_causal/saving_a_cat_causal_4"",""causal_sequence/saving_a_cat_causal/saving_a_cat_causal_8"",""causal_sequence/saving_a_cat_causal/saving_a_cat_causal_ten"",""causal_sequence/saving_a_cat_causal/saving_a_cat_causal_2"",""causal_sequence/saving_a_cat_causal/saving_a_cat_causal_3"",""causal_sequence/saving_a_cat_causal/saving_a_cat_causal_7"",""causal_sequence/saving_a_cat_causal/saving_a_cat_causal_5"",""causal_sequence/saving_a_cat_causal/saving_a_cat_causal_6""]","[{""src"":""https://test12345.live/images/causal_sequence/saving_a_cat_causal/saving_a_cat_causal_1.png"",""x"":288,""y"":487,""move_time"":17819},{""src"":""https://test12345.live/images/causal_sequence/saving_a_cat_causal/saving_a_cat_causal_2.png"",""x"":457,""y"":487,""move_time"":3598},{""src"":""https://test12345.live/images/causal_sequence/saving_a_cat_causal/saving_a_cat_causal_3.png"",""x"":627,""y"":487,""move_time"":3467},{""src"":""https://test12345.live/images/causal_sequence/saving_a_cat_causal/saving_a_cat_causal_4.png"",""x"":796,""y"":487,""move_time"":1900},{""src"":""https://test12345.live/images/causal_sequence/saving_a_cat_causal/saving_a_cat_causal_5.png"",""x"":966,""y"":487,""move_time"":2533},{""src"":""https://test12345.live/images/causal_sequence/saving_a_cat_causal/saving_a_cat_causal_6.png"",""x"":288,""y"":657,""move_time"":1384},{""src"":""https://test12345.live/images/causal_sequence/saving_a_cat_causal/saving_a_cat_causal_7.png"",""x"":457,""y"":657,""move_time"":1233},{""src"":""https://test12345.live/images/causal_sequence/saving_a_cat_causal/saving_a_cat_causal_8.png"",""x"":627,""y"":657,""move_time"":1617},{""src"":""https://test12345.live/images/causal_sequence/saving_a_cat_causal/saving_a_cat_causal_9.png"",""x"":796,""y"":657,""move_time"":1683},{""src"":""https://test12345.live/images/causal_sequence/saving_a_cat_causal/saving_a_cat_causal_ten.png"",""x"":966,""y"":657,""move_time"":1533}]","[{""src"":""https://test12345.live/images/causal_sequence/saving_a_cat_causal/saving_a_cat_causal_1.png"",""x"":288,""y"":487},{""src"":""https://test12345.live/images/causal_sequence/saving_a_cat_causal/saving_a_cat_causal_6.png"",""x"":288,""y"":657},{""src"":""https://test12345.live/images/causal_sequence/saving_a_cat_causal/saving_a_cat_causal_2.png"",""x"":457,""y"":487},{""src"":""https://test12345.live/images/causal_sequence/saving_a_cat_causal/saving_a_cat_causal_7.png"",""x"":457,""y"":657},{""src"":""https://test12345.live/images/causal_sequence/saving_a_cat_causal/saving_a_cat_causal_3.png"",""x"":627,""y"":487},{""src"":""https://test12345.live/images/causal_sequence/saving_a_cat_causal/saving_a_cat_causal_8.png"",""x"":627,""y"":657},{""src"":""https://test12345.live/images/causal_sequence/saving_a_cat_causal/saving_a_cat_causal_4.png"",""x"":796,""y"":487},{""src"":""https://test12345.live/images/causal_sequence/saving_a_cat_causal/saving_a_cat_causal_9.png"",""x"":796,""y"":657},{""src"":""https://test12345.live/images/causal_sequence/saving_a_cat_causal/saving_a_cat_causal_5.png"",""x"":966,""y"":487},{""src"":""https://test12345.live/images/causal_sequence/saving_a_cat_causal/saving_a_cat_causal_ten.png"",""x"":966,""y"":657}]","10",""
"","order","7","240149","0.0-7.0","87F5A67EB12549BA9F2ACB11087C8F82","conditionA","","36584","[""causal_sequence/museum_causal/museum_causal_3"",""causal_sequence/museum_causal/museum_causal_4"",""causal_sequence/museum_causal/museum_causal_7"",""causal_sequence/museum_causal/museum_causal_5"",""causal_sequence/museum_causal/museum_causal_1"",""causal_sequence/museum_causal/museum_causal_8"",""causal_sequence/museum_causal/museum_causal_ten"",""causal_sequence/museum_causal/museum_causal_9"",""causal_sequence/museum_causal/museum_causal_2"",""causal_sequence/museum_causal/museum_causal_6""]","[{""src"":""https://test12345.live/images/causal_sequence/museum_causal/museum_causal_1.png"",""x"":288,""y"":487,""move_time"":14353},{""src"":""https://test12345.live/images/causal_sequence/museum_causal/museum_causal_2.png"",""x"":457,""y"":487,""move_time"":2781},{""src"":""https://test12345.live/images/causal_sequence/museum_causal/museum_causal_3.png"",""x"":627,""y"":487,""move_time"":2652},{""src"":""https://test12345.live/images/causal_sequence/museum_causal/museum_causal_5.png"",""x"":796,""y"":102,""move_time"":5032},{""src"":""https://test12345.live/images/causal_sequence/museum_causal/museum_causal_4.png"",""x"":796,""y"":487,""move_time"":1484},{""src"":""https://test12345.live/images/causal_sequence/museum_causal/museum_causal_5.png"",""x"":966,""y"":487,""move_time"":1601},{""src"":""https://test12345.live/images/causal_sequence/museum_causal/museum_causal_6.png"",""x"":288,""y"":657,""move_time"":1915},{""src"":""https://test12345.live/images/causal_sequence/museum_causal/museum_causal_7.png"",""x"":457,""y"":657,""move_time"":1918},{""src"":""https://test12345.live/images/causal_sequence/museum_causal/museum_causal_ten.png"",""x"":627,""y"":657,""move_time"":1634},{""src"":""https://test12345.live/images/causal_sequence/museum_causal/museum_causal_9.png"",""x"":796,""y"":657,""move_time"":1249},{""src"":""https://test12345.live/images/causal_sequence/museum_causal/museum_causal_8.png"",""x"":966,""y"":657,""move_time"":1183}]","[{""src"":""https://test12345.live/images/causal_sequence/museum_causal/museum_causal_1.png"",""x"":288,""y"":487},{""src"":""https://test12345.live/images/causal_sequence/museum_causal/museum_causal_6.png"",""x"":288,""y"":657},{""src"":""https://test12345.live/images/causal_sequence/museum_causal/museum_causal_2.png"",""x"":457,""y"":487},{""src"":""https://test12345.live/images/causal_sequence/museum_causal/museum_causal_7.png"",""x"":457,""y"":657},{""src"":""https://test12345.live/images/causal_sequence/museum_causal/museum_causal_3.png"",""x"":627,""y"":487},{""src"":""https://test12345.live/images/causal_sequence/museum_causal/museum_causal_ten.png"",""x"":627,""y"":657},{""src"":""https://test12345.live/images/causal_sequence/museum_causal/museum_causal_4.png"",""x"":796,""y"":487},{""src"":""https://test12345.live/images/causal_sequence/museum_causal/museum_causal_9.png"",""x"":796,""y"":657},{""src"":""https://test12345.live/images/causal_sequence/museum_causal/museum_causal_5.png"",""x"":966,""y"":487},{""src"":""https://test12345.live/images/causal_sequence/museum_causal/museum_causal_8.png"",""x"":966,""y"":657}]","11",""
"","order","8","266582","0.0-8.0","87F5A67EB12549BA9F2ACB11087C8F82","conditionA","","26432","[""semantic_sequence/redecorating_a_house_semantic/redecorating_a_house_semantic_2"",""semantic_sequence/redecorating_a_house_semantic/redecorating_a_house_semantic_9"",""semantic_sequence/redecorating_a_house_semantic/redecorating_a_house_semantic_7"",""semantic_sequence/redecorating_a_house_semantic/redecorating_a_house_semantic_ten"",""semantic_sequence/redecorating_a_house_semantic/redecorating_a_house_semantic_3"",""semantic_sequence/redecorating_a_house_semantic/redecorating_a_house_semantic_5"",""semantic_sequence/redecorating_a_house_semantic/redecorating_a_house_semantic_4"",""semantic_sequence/redecorating_a_house_semantic/redecorating_a_house_semantic_1"",""semantic_sequence/redecorating_a_house_semantic/redecorating_a_house_semantic_8"",""semantic_sequence/redecorating_a_house_semantic/redecorating_a_house_semantic_6""]","[{""src"":""https://test12345.live/images/semantic_sequence/redecorating_a_house_semantic/redecorating_a_house_semantic_1.png"",""x"":288,""y"":487,""move_time"":12381},{""src"":""https://test12345.live/images/semantic_sequence/redecorating_a_house_semantic/redecorating_a_house_semantic_2.png"",""x"":457,""y"":487,""move_time"":1435},{""src"":""https://test12345.live/images/semantic_sequence/redecorating_a_house_semantic/redecorating_a_house_semantic_3.png"",""x"":627,""y"":487,""move_time"":1597},{""src"":""https://test12345.live/images/semantic_sequence/redecorating_a_house_semantic/redecorating_a_house_semantic_4.png"",""x"":796,""y"":487,""move_time"":1117},{""src"":""https://test12345.live/images/semantic_sequence/redecorating_a_house_semantic/redecorating_a_house_semantic_5.png"",""x"":966,""y"":487,""move_time"":1299},{""src"":""https://test12345.live/images/semantic_sequence/redecorating_a_house_semantic/redecorating_a_house_semantic_6.png"",""x"":288,""y"":657,""move_time"":1617},{""src"":""https://test12345.live/images/semantic_sequence/redecorating_a_house_semantic/redecorating_a_house_semantic_7.png"",""x"":457,""y"":657,""move_time"":1534},{""src"":""https://test12345.live/images/semantic_sequence/redecorating_a_house_semantic/redecorating_a_house_semantic_8.png"",""x"":627,""y"":657,""move_time"":1333},{""src"":""https://test12345.live/images/semantic_sequence/redecorating_a_house_semantic/redecorating_a_house_semantic_9.png"",""x"":796,""y"":657,""move_time"":1438},{""src"":""https://test12345.live/images/semantic_sequence/redecorating_a_house_semantic/redecorating_a_house_semantic_ten.png"",""x"":966,""y"":657,""move_time"":1812}]","[{""src"":""https://test12345.live/images/semantic_sequence/redecorating_a_house_semantic/redecorating_a_house_semantic_1.png"",""x"":288,""y"":487},{""src"":""https://test12345.live/images/semantic_sequence/redecorating_a_house_semantic/redecorating_a_house_semantic_6.png"",""x"":288,""y"":657},{""src"":""https://test12345.live/images/semantic_sequence/redecorating_a_house_semantic/redecorating_a_house_semantic_2.png"",""x"":457,""y"":487},{""src"":""https://test12345.live/images/semantic_sequence/redecorating_a_house_semantic/redecorating_a_house_semantic_7.png"",""x"":457,""y"":657},{""src"":""https://test12345.live/images/semantic_sequence/redecorating_a_house_semantic/redecorating_a_house_semantic_3.png"",""x"":627,""y"":487},{""src"":""https://test12345.live/images/semantic_sequence/redecorating_a_house_semantic/redecorating_a_house_semantic_8.png"",""x"":627,""y"":657},{""src"":""https://test12345.live/images/semantic_sequence/redecorating_a_house_semantic/redecorating_a_house_semantic_4.png"",""x"":796,""y"":487},{""src"":""https://test12345.live/images/semantic_sequence/redecorating_a_house_semantic/redecorating_a_house_semantic_9.png"",""x"":796,""y"":657},{""src"":""https://test12345.live/images/semantic_sequence/redecorating_a_house_semantic/redecorating_a_house_semantic_5.png"",""x"":966,""y"":487},{""src"":""https://test12345.live/images/semantic_sequence/redecorating_a_house_semantic/redecorating_a_house_semantic_ten.png"",""x"":966,""y"":657}]","10",""
"","order","9","310982","0.0-9.0","87F5A67EB12549BA9F2ACB11087C8F82","conditionA","","44401","[""schematic_sequence/flight_scheme/flight_scheme_5"",""schematic_sequence/flight_scheme/flight_scheme_9"",""schematic_sequence/flight_scheme/flight_scheme_7"",""schematic_sequence/flight_scheme/flight_scheme_ten"",""schematic_sequence/flight_scheme/flight_scheme_1"",""schematic_sequence/flight_scheme/flight_scheme_6"",""schematic_sequence/flight_scheme/flight_scheme_4"",""schematic_sequence/flight_scheme/flight_scheme_8"",""schematic_sequence/flight_scheme/flight_scheme_2"",""schematic_sequence/flight_scheme/flight_scheme_3""]","[{""src"":""https://test12345.live/images/schematic_sequence/flight_scheme/flight_scheme_1.png"",""x"":288,""y"":487,""move_time"":19038},{""src"":""https://test12345.live/images/schematic_sequence/flight_scheme/flight_scheme_2.png"",""x"":457,""y"":487,""move_time"":2074},{""src"":""https://test12345.live/images/schematic_sequence/flight_scheme/flight_scheme_3.png"",""x"":627,""y"":487,""move_time"":1536},{""src"":""https://test12345.live/images/schematic_sequence/flight_scheme/flight_scheme_4.png"",""x"":796,""y"":487,""move_time"":5134},{""src"":""https://test12345.live/images/schematic_sequence/flight_scheme/flight_scheme_5.png"",""x"":966,""y"":487,""move_time"":2614},{""src"":""https://test12345.live/images/schematic_sequence/flight_scheme/flight_scheme_7.png"",""x"":288,""y"":657,""move_time"":2283},{""src"":""https://test12345.live/images/schematic_sequence/flight_scheme/flight_scheme_7.png"",""x"":457,""y"":272,""move_time"":3667},{""src"":""https://test12345.live/images/schematic_sequence/flight_scheme/flight_scheme_6.png"",""x"":288,""y"":657,""move_time"":1184},{""src"":""https://test12345.live/images/schematic_sequence/flight_scheme/flight_scheme_7.png"",""x"":457,""y"":657,""move_time"":1349},{""src"":""https://test12345.live/images/schematic_sequence/flight_scheme/flight_scheme_8.png"",""x"":627,""y"":657,""move_time"":1850},{""src"":""https://test12345.live/images/schematic_sequence/flight_scheme/flight_scheme_9.png"",""x"":796,""y"":657,""move_time"":1400},{""src"":""https://test12345.live/images/schematic_sequence/flight_scheme/flight_scheme_ten.png"",""x"":966,""y"":657,""move_time"":1400}]","[{""src"":""https://test12345.live/images/schematic_sequence/flight_scheme/flight_scheme_1.png"",""x"":288,""y"":487},{""src"":""https://test12345.live/images/schematic_sequence/flight_scheme/flight_scheme_6.png"",""x"":288,""y"":657},{""src"":""https://test12345.live/images/schematic_sequence/flight_scheme/flight_scheme_2.png"",""x"":457,""y"":487},{""src"":""https://test12345.live/images/schematic_sequence/flight_scheme/flight_scheme_7.png"",""x"":457,""y"":657},{""src"":""https://test12345.live/images/schematic_sequence/flight_scheme/flight_scheme_3.png"",""x"":627,""y"":487},{""src"":""https://test12345.live/images/schematic_sequence/flight_scheme/flight_scheme_8.png"",""x"":627,""y"":657},{""src"":""https://test12345.live/images/schematic_sequence/flight_scheme/flight_scheme_4.png"",""x"":796,""y"":487},{""src"":""https://test12345.live/images/schematic_sequence/flight_scheme/flight_scheme_9.png"",""x"":796,""y"":657},{""src"":""https://test12345.live/images/schematic_sequence/flight_scheme/flight_scheme_5.png"",""x"":966,""y"":487},{""src"":""https://test12345.live/images/schematic_sequence/flight_scheme/flight_scheme_ten.png"",""x"":966,""y"":657}]","12",""
"","order","10","346016","0.0-10.0","87F5A67EB12549BA9F2ACB11087C8F82","conditionA","","35033","[""semantic_sequence/maintaining_a_car_semantic/maintaining_a_car_semantic_4"",""semantic_sequence/maintaining_a_car_semantic/maintaining_a_car_semantic_2"",""semantic_sequence/maintaining_a_car_semantic/maintaining_a_car_semantic_8"",""semantic_sequence/maintaining_a_car_semantic/maintaining_a_car_semantic_3"",""semantic_sequence/maintaining_a_car_semantic/maintaining_a_car_semantic_5"",""semantic_sequence/maintaining_a_car_semantic/maintaining_a_car_semantic_1"",""semantic_sequence/maintaining_a_car_semantic/maintaining_a_car_semantic_ten"",""semantic_sequence/maintaining_a_car_semantic/maintaining_a_car_semantic_9"",""semantic_sequence/maintaining_a_car_semantic/maintaining_a_car_semantic_7"",""semantic_sequence/maintaining_a_car_semantic/maintaining_a_car_semantic_6""]","[{""src"":""https://test12345.live/images/semantic_sequence/maintaining_a_car_semantic/maintaining_a_car_semantic_1.png"",""x"":288,""y"":487,""move_time"":15425},{""src"":""https://test12345.live/images/semantic_sequence/maintaining_a_car_semantic/maintaining_a_car_semantic_2.png"",""x"":457,""y"":487,""move_time"":1417},{""src"":""https://test12345.live/images/semantic_sequence/maintaining_a_car_semantic/maintaining_a_car_semantic_3.png"",""x"":627,""y"":487,""move_time"":1249},{""src"":""https://test12345.live/images/semantic_sequence/maintaining_a_car_semantic/maintaining_a_car_semantic_4.png"",""x"":796,""y"":487,""move_time"":1286},{""src"":""https://test12345.live/images/semantic_sequence/maintaining_a_car_semantic/maintaining_a_car_semantic_5.png"",""x"":966,""y"":487,""move_time"":1448},{""src"":""https://test12345.live/images/semantic_sequence/maintaining_a_car_semantic/maintaining_a_car_semantic_6.png"",""x"":966,""y"":487,""move_time"":2599},{""src"":""https://test12345.live/images/semantic_sequence/maintaining_a_car_semantic/maintaining_a_car_semantic_5.png"",""x"":966,""y"":487,""move_time"":2135},{""src"":""https://test12345.live/images/semantic_sequence/maintaining_a_car_semantic/maintaining_a_car_semantic_6.png"",""x"":288,""y"":657,""move_time"":1683},{""src"":""https://test12345.live/images/semantic_sequence/maintaining_a_car_semantic/maintaining_a_car_semantic_7.png"",""x"":457,""y"":657,""move_time"":2434},{""src"":""https://test12345.live/images/semantic_sequence/maintaining_a_car_semantic/maintaining_a_car_semantic_8.png"",""x"":627,""y"":657,""move_time"":2017},{""src"":""https://test12345.live/images/semantic_sequence/maintaining_a_car_semantic/maintaining_a_car_semantic_9.png"",""x"":796,""y"":657,""move_time"":1234},{""src"":""https://test12345.live/images/semantic_sequence/maintaining_a_car_semantic/maintaining_a_car_semantic_ten.png"",""x"":966,""y"":657,""move_time"":1332}]","[{""src"":""https://test12345.live/images/semantic_sequence/maintaining_a_car_semantic/maintaining_a_car_semantic_1.png"",""x"":288,""y"":487},{""src"":""https://test12345.live/images/semantic_sequence/maintaining_a_car_semantic/maintaining_a_car_semantic_6.png"",""x"":288,""y"":657},{""src"":""https://test12345.live/images/semantic_sequence/maintaining_a_car_semantic/maintaining_a_car_semantic_2.png"",""x"":457,""y"":487},{""src"":""https://test12345.live/images/semantic_sequence/maintaining_a_car_semantic/maintaining_a_car_semantic_7.png"",""x"":457,""y"":657},{""src"":""https://test12345.live/images/semantic_sequence/maintaining_a_car_semantic/maintaining_a_car_semantic_3.png"",""x"":627,""y"":487},{""src"":""https://test12345.live/images/semantic_sequence/maintaining_a_car_semantic/maintaining_a_car_semantic_8.png"",""x"":627,""y"":657},{""src"":""https://test12345.live/images/semantic_sequence/maintaining_a_car_semantic/maintaining_a_car_semantic_4.png"",""x"":796,""y"":487},{""src"":""https://test12345.live/images/semantic_sequence/maintaining_a_car_semantic/maintaining_a_car_semantic_9.png"",""x"":796,""y"":657},{""src"":""https://test12345.live/images/semantic_sequence/maintaining_a_car_semantic/maintaining_a_car_semantic_5.png"",""x"":966,""y"":487},{""src"":""https://test12345.live/images/semantic_sequence/maintaining_a_car_semantic/maintaining_a_car_semantic_ten.png"",""x"":966,""y"":657}]","12",""
"","order","11","379065","0.0-11.0","87F5A67EB12549BA9F2ACB11087C8F82","conditionA","","33050","[""semantic_sequence/physical_activity_semantic/physical_activity_semantic_3"",""semantic_sequence/physical_activity_semantic/physical_activity_semantic_6"",""semantic_sequence/physical_activity_semantic/physical_activity_semantic_8"",""semantic_sequence/physical_activity_semantic/physical_activity_semantic_5"",""semantic_sequence/physical_activity_semantic/physical_activity_semantic_4"",""semantic_sequence/physical_activity_semantic/physical_activity_semantic_ten"",""semantic_sequence/physical_activity_semantic/physical_activity_semantic_2"",""semantic_sequence/physical_activity_semantic/physical_activity_semantic_9"",""semantic_sequence/physical_activity_semantic/physical_activity_semantic_1"",""semantic_sequence/physical_activity_semantic/physical_activity_semantic_7""]","[{""src"":""https://test12345.live/images/semantic_sequence/physical_activity_semantic/physical_activity_semantic_1.png"",""x"":288,""y"":487,""move_time"":15724},{""src"":""https://test12345.live/images/semantic_sequence/physical_activity_semantic/physical_activity_semantic_2.png"",""x"":457,""y"":487,""move_time"":1267},{""src"":""https://test12345.live/images/semantic_sequence/physical_activity_semantic/physical_activity_semantic_3.png"",""x"":627,""y"":487,""move_time"":2182},{""src"":""https://test12345.live/images/semantic_sequence/physical_activity_semantic/physical_activity_semantic_4.png"",""x"":796,""y"":487,""move_time"":1301},{""src"":""https://test12345.live/images/semantic_sequence/physical_activity_semantic/physical_activity_semantic_5.png"",""x"":966,""y"":487,""move_time"":1333},{""src"":""https://test12345.live/images/semantic_sequence/physical_activity_semantic/physical_activity_semantic_6.png"",""x"":288,""y"":657,""move_time"":2433},{""src"":""https://test12345.live/images/semantic_sequence/physical_activity_semantic/physical_activity_semantic_7.png"",""x"":457,""y"":657,""move_time"":2000},{""src"":""https://test12345.live/images/semantic_sequence/physical_activity_semantic/physical_activity_semantic_8.png"",""x"":627,""y"":657,""move_time"":3566},{""src"":""https://test12345.live/images/semantic_sequence/physical_activity_semantic/physical_activity_semantic_9.png"",""x"":796,""y"":657,""move_time"":1167},{""src"":""https://test12345.live/images/semantic_sequence/physical_activity_semantic/physical_activity_semantic_ten.png"",""x"":966,""y"":657,""move_time"":1250}]","[{""src"":""https://test12345.live/images/semantic_sequence/physical_activity_semantic/physical_activity_semantic_1.png"",""x"":288,""y"":487},{""src"":""https://test12345.live/images/semantic_sequence/physical_activity_semantic/physical_activity_semantic_6.png"",""x"":288,""y"":657},{""src"":""https://test12345.live/images/semantic_sequence/physical_activity_semantic/physical_activity_semantic_2.png"",""x"":457,""y"":487},{""src"":""https://test12345.live/images/semantic_sequence/physical_activity_semantic/physical_activity_semantic_7.png"",""x"":457,""y"":657},{""src"":""https://test12345.live/images/semantic_sequence/physical_activity_semantic/physical_activity_semantic_3.png"",""x"":627,""y"":487},{""src"":""https://test12345.live/images/semantic_sequence/physical_activity_semantic/physical_activity_semantic_8.png"",""x"":627,""y"":657},{""src"":""https://test12345.live/images/semantic_sequence/physical_activity_semantic/physical_activity_semantic_4.png"",""x"":796,""y"":487},{""src"":""https://test12345.live/images/semantic_sequence/physical_activity_semantic/physical_activity_semantic_9.png"",""x"":796,""y"":657},{""src"":""https://test12345.live/images/semantic_sequence/physical_activity_semantic/physical_activity_semantic_5.png"",""x"":966,""y"":487},{""src"":""https://test12345.live/images/semantic_sequence/physical_activity_semantic/physical_activity_semantic_ten.png"",""x"":966,""y"":657}]","10",""
"","order","12","415398","0.0-12.0","87F5A67EB12549BA9F2ACB11087C8F82","conditionA","","36333","[""schematic_sequence/supermarket_scheme/supermarket_scheme_9"",""schematic_sequence/supermarket_scheme/supermarket_scheme_7"",""schematic_sequence/supermarket_scheme/supermarket_scheme_5"",""schematic_sequence/supermarket_scheme/supermarket_scheme_1"",""schematic_sequence/supermarket_scheme/supermarket_scheme_4"",""schematic_sequence/supermarket_scheme/supermarket_scheme_8"",""schematic_sequence/supermarket_scheme/supermarket_scheme_ten"",""schematic_sequence/supermarket_scheme/supermarket_scheme_3"",""schematic_sequence/supermarket_scheme/supermarket_scheme_2"",""schematic_sequence/supermarket_scheme/supermarket_scheme_6""]","[{""src"":""https://test12345.live/images/schematic_sequence/supermarket_scheme/supermarket_scheme_1.png"",""x"":288,""y"":487,""move_time"":13872},{""src"":""https://test12345.live/images/schematic_sequence/supermarket_scheme/supermarket_scheme_3.png"",""x"":457,""y"":487,""move_time"":1699},{""src"":""https://test12345.live/images/schematic_sequence/supermarket_scheme/supermarket_scheme_2.png"",""x"":627,""y"":487,""move_time"":1600},{""src"":""https://test12345.live/images/schematic_sequence/supermarket_scheme/supermarket_scheme_4.png"",""x"":796,""y"":487,""move_time"":1933},{""src"":""https://test12345.live/images/schematic_sequence/supermarket_scheme/supermarket_scheme_5.png"",""x"":966,""y"":487,""move_time"":2267},{""src"":""https://test12345.live/images/schematic_sequence/supermarket_scheme/supermarket_scheme_7.png"",""x"":288,""y"":657,""move_time"":2950},{""src"":""https://test12345.live/images/schematic_sequence/supermarket_scheme/supermarket_scheme_8.png"",""x"":457,""y"":102,""move_time"":2950},{""src"":""https://test12345.live/images/schematic_sequence/supermarket_scheme/supermarket_scheme_7.png"",""x"":627,""y"":272,""move_time"":1367},{""src"":""https://test12345.live/images/schematic_sequence/supermarket_scheme/supermarket_scheme_6.png"",""x"":288,""y"":657,""move_time"":1467},{""src"":""https://test12345.live/images/schematic_sequence/supermarket_scheme/supermarket_scheme_7.png"",""x"":457,""y"":657,""move_time"":1532},{""src"":""https://test12345.live/images/schematic_sequence/supermarket_scheme/supermarket_scheme_8.png"",""x"":627,""y"":657,""move_time"":1433},{""src"":""https://test12345.live/images/schematic_sequence/supermarket_scheme/supermarket_scheme_9.png"",""x"":796,""y"":657,""move_time"":1468},{""src"":""https://test12345.live/images/schematic_sequence/supermarket_scheme/supermarket_scheme_ten.png"",""x"":966,""y"":657,""move_time"":1148}]","[{""src"":""https://test12345.live/images/schematic_sequence/supermarket_scheme/supermarket_scheme_1.png"",""x"":288,""y"":487},{""src"":""https://test12345.live/images/schematic_sequence/supermarket_scheme/supermarket_scheme_6.png"",""x"":288,""y"":657},{""src"":""https://test12345.live/images/schematic_sequence/supermarket_scheme/supermarket_scheme_3.png"",""x"":457,""y"":487},{""src"":""https://test12345.live/images/schematic_sequence/supermarket_scheme/supermarket_scheme_7.png"",""x"":457,""y"":657},{""src"":""https://test12345.live/images/schematic_sequence/supermarket_scheme/supermarket_scheme_2.png"",""x"":627,""y"":487},{""src"":""https://test12345.live/images/schematic_sequence/supermarket_scheme/supermarket_scheme_8.png"",""x"":627,""y"":657},{""src"":""https://test12345.live/images/schematic_sequence/supermarket_scheme/supermarket_scheme_4.png"",""x"":796,""y"":487},{""src"":""https://test12345.live/images/schematic_sequence/supermarket_scheme/supermarket_scheme_9.png"",""x"":796,""y"":657},{""src"":""https://test12345.live/images/schematic_sequence/supermarket_scheme/supermarket_scheme_5.png"",""x"":966,""y"":487},{""src"":""https://test12345.live/images/schematic_sequence/supermarket_scheme/supermarket_scheme_ten.png"",""x"":966,""y"":657}]","13",""
"","order","13","457065","0.0-13.0","87F5A67EB12549BA9F2ACB11087C8F82","conditionA","","41667","[""causal_sequence/coin_causal/coin_causal_3"",""causal_sequence/coin_causal/coin_causal_1"",""causal_sequence/coin_causal/coin_causal_2"",""causal_sequence/coin_causal/coin_causal_5"",""causal_sequence/coin_causal/coin_causal_ten"",""causal_sequence/coin_causal/coin_causal_4"",""causal_sequence/coin_causal/coin_causal_8"",""causal_sequence/coin_causal/coin_causal_6"",""causal_sequence/coin_causal/coin_causal_9"",""causal_sequence/coin_causal/coin_causal_7""]","[{""src"":""https://test12345.live/images/causal_sequence/coin_causal/coin_causal_1.png"",""x"":288,""y"":487,""move_time"":18884},{""src"":""https://test12345.live/images/causal_sequence/coin_causal/coin_causal_2.png"",""x"":457,""y"":487,""move_time"":2200},{""src"":""https://test12345.live/images/causal_sequence/coin_causal/coin_causal_3.png"",""x"":627,""y"":487,""move_time"":2601},{""src"":""https://test12345.live/images/causal_sequence/coin_causal/coin_causal_4.png"",""x"":796,""y"":487,""move_time"":4166},{""src"":""https://test12345.live/images/causal_sequence/coin_causal/coin_causal_5.png"",""x"":966,""y"":487,""move_time"":3451},{""src"":""https://test12345.live/images/causal_sequence/coin_causal/coin_causal_6.png"",""x"":288,""y"":657,""move_time"":3715},{""src"":""https://test12345.live/images/causal_sequence/coin_causal/coin_causal_7.png"",""x"":457,""y"":657,""move_time"":1751},{""src"":""https://test12345.live/images/causal_sequence/coin_causal/coin_causal_8.png"",""x"":627,""y"":657,""move_time"":1435},{""src"":""https://test12345.live/images/causal_sequence/coin_causal/coin_causal_9.png"",""x"":796,""y"":657,""move_time"":1479},{""src"":""https://test12345.live/images/causal_sequence/coin_causal/coin_causal_ten.png"",""x"":966,""y"":657,""move_time"":1250}]","[{""src"":""https://test12345.live/images/causal_sequence/coin_causal/coin_causal_1.png"",""x"":288,""y"":487},{""src"":""https://test12345.live/images/causal_sequence/coin_causal/coin_causal_6.png"",""x"":288,""y"":657},{""src"":""https://test12345.live/images/causal_sequence/coin_causal/coin_causal_2.png"",""x"":457,""y"":487},{""src"":""https://test12345.live/images/causal_sequence/coin_causal/coin_causal_7.png"",""x"":457,""y"":657},{""src"":""https://test12345.live/images/causal_sequence/coin_causal/coin_causal_3.png"",""x"":627,""y"":487},{""src"":""https://test12345.live/images/causal_sequence/coin_causal/coin_causal_8.png"",""x"":627,""y"":657},{""src"":""https://test12345.live/images/causal_sequence/coin_causal/coin_causal_4.png"",""x"":796,""y"":487},{""src"":""https://test12345.live/images/causal_sequence/coin_causal/coin_causal_9.png"",""x"":796,""y"":657},{""src"":""https://test12345.live/images/causal_sequence/coin_causal/coin_causal_5.png"",""x"":966,""y"":487},{""src"":""https://test12345.live/images/causal_sequence/coin_causal/coin_causal_ten.png"",""x"":966,""y"":657}]","10",""
"","order","14","496964","0.0-14.0","87F5A67EB12549BA9F2ACB11087C8F82","conditionA","","39899","[""schematic_sequence/restaurant_scheme/restaurant_scheme_8"",""schematic_sequence/restaurant_scheme/restaurant_scheme_6"",""schematic_sequence/restaurant_scheme/restaurant_scheme_1"",""schematic_sequence/restaurant_scheme/restaurant_scheme_3"",""schematic_sequence/restaurant_scheme/restaurant_scheme_4"",""schematic_sequence/restaurant_scheme/restaurant_scheme_5"",""schematic_sequence/restaurant_scheme/restaurant_scheme_2"",""schematic_sequence/restaurant_scheme/restaurant_scheme_ten"",""schematic_sequence/restaurant_scheme/restaurant_scheme_7"",""schematic_sequence/restaurant_scheme/restaurant_scheme_9""]","[{""src"":""https://test12345.live/images/schematic_sequence/restaurant_scheme/restaurant_scheme_1.png"",""x"":288,""y"":487,""move_time"":15984},{""src"":""https://test12345.live/images/schematic_sequence/restaurant_scheme/restaurant_scheme_2.png"",""x"":457,""y"":487,""move_time"":2367},{""src"":""https://test12345.live/images/schematic_sequence/restaurant_scheme/restaurant_scheme_3.png"",""x"":627,""y"":487,""move_time"":2548},{""src"":""https://test12345.live/images/schematic_sequence/restaurant_scheme/restaurant_scheme_4.png"",""x"":796,""y"":487,""move_time"":2131},{""src"":""https://test12345.live/images/schematic_sequence/restaurant_scheme/restaurant_scheme_6.png"",""x"":966,""y"":487,""move_time"":2936},{""src"":""https://test12345.live/images/schematic_sequence/restaurant_scheme/restaurant_scheme_6.png"",""x"":457,""y"":102,""move_time"":4101},{""src"":""https://test12345.live/images/schematic_sequence/restaurant_scheme/restaurant_scheme_5.png"",""x"":966,""y"":487,""move_time"":1548},{""src"":""https://test12345.live/images/schematic_sequence/restaurant_scheme/restaurant_scheme_6.png"",""x"":288,""y"":657,""move_time"":1865},{""src"":""https://test12345.live/images/schematic_sequence/restaurant_scheme/restaurant_scheme_7.png"",""x"":457,""y"":657,""move_time"":1334},{""src"":""https://test12345.live/images/schematic_sequence/restaurant_scheme/restaurant_scheme_8.png"",""x"":627,""y"":657,""move_time"":1667},{""src"":""https://test12345.live/images/schematic_sequence/restaurant_scheme/restaurant_scheme_9.png"",""x"":796,""y"":657,""move_time"":1165},{""src"":""https://test12345.live/images/schematic_sequence/restaurant_scheme/restaurant_scheme_ten.png"",""x"":966,""y"":657,""move_time"":1202}]","[{""src"":""https://test12345.live/images/schematic_sequence/restaurant_scheme/restaurant_scheme_1.png"",""x"":288,""y"":487},{""src"":""https://test12345.live/images/schematic_sequence/restaurant_scheme/restaurant_scheme_6.png"",""x"":288,""y"":657},{""src"":""https://test12345.live/images/schematic_sequence/restaurant_scheme/restaurant_scheme_2.png"",""x"":457,""y"":487},{""src"":""https://test12345.live/images/schematic_sequence/restaurant_scheme/restaurant_scheme_7.png"",""x"":457,""y"":657},{""src"":""https://test12345.live/images/schematic_sequence/restaurant_scheme/restaurant_scheme_3.png"",""x"":627,""y"":487},{""src"":""https://test12345.live/images/schematic_sequence/restaurant_scheme/restaurant_scheme_8.png"",""x"":627,""y"":657},{""src"":""https://test12345.live/images/schematic_sequence/restaurant_scheme/restaurant_scheme_4.png"",""x"":796,""y"":487},{""src"":""https://test12345.live/images/schematic_sequence/restaurant_scheme/restaurant_scheme_9.png"",""x"":796,""y"":657},{""src"":""https://test12345.live/images/schematic_sequence/restaurant_scheme/restaurant_scheme_5.png"",""x"":966,""y"":487},{""src"":""https://test12345.live/images/schematic_sequence/restaurant_scheme/restaurant_scheme_ten.png"",""x"":966,""y"":657}]","12",""
"","order","15","542063","0.0-15.0","87F5A67EB12549BA9F2ACB11087C8F82","conditionA","","45101","[""schematic_sequence/hotel_scheme/hotel_scheme_3"",""schematic_sequence/hotel_scheme/hotel_scheme_5"",""schematic_sequence/hotel_scheme/hotel_scheme_ten"",""schematic_sequence/hotel_scheme/hotel_scheme_8"",""schematic_sequence/hotel_scheme/hotel_scheme_7"",""schematic_sequence/hotel_scheme/hotel_scheme_9"",""schematic_sequence/hotel_scheme/hotel_scheme_6"",""schematic_sequence/hotel_scheme/hotel_scheme_4"",""schematic_sequence/hotel_scheme/hotel_scheme_1"",""schematic_sequence/hotel_scheme/hotel_scheme_2""]","[{""src"":""https://test12345.live/images/schematic_sequence/hotel_scheme/hotel_scheme_1.png"",""x"":288,""y"":487,""move_time"":12078},{""src"":""https://test12345.live/images/schematic_sequence/hotel_scheme/hotel_scheme_2.png"",""x"":457,""y"":487,""move_time"":2152},{""src"":""https://test12345.live/images/schematic_sequence/hotel_scheme/hotel_scheme_4.png"",""x"":627,""y"":272,""move_time"":2966},{""src"":""https://test12345.live/images/schematic_sequence/hotel_scheme/hotel_scheme_3.png"",""x"":627,""y"":487,""move_time"":1900},{""src"":""https://test12345.live/images/schematic_sequence/hotel_scheme/hotel_scheme_4.png"",""x"":796,""y"":487,""move_time"":2767},{""src"":""https://test12345.live/images/schematic_sequence/hotel_scheme/hotel_scheme_6.png"",""x"":966,""y"":487,""move_time"":9166},{""src"":""https://test12345.live/images/schematic_sequence/hotel_scheme/hotel_scheme_7.png"",""x"":966,""y"":272,""move_time"":2566},{""src"":""https://test12345.live/images/schematic_sequence/hotel_scheme/hotel_scheme_6.png"",""x"":796,""y"":272,""move_time"":917},{""src"":""https://test12345.live/images/schematic_sequence/hotel_scheme/hotel_scheme_5.png"",""x"":966,""y"":487,""move_time"":1751},{""src"":""https://test12345.live/images/schematic_sequence/hotel_scheme/hotel_scheme_6.png"",""x"":288,""y"":657,""move_time"":2516},{""src"":""https://test12345.live/images/schematic_sequence/hotel_scheme/hotel_scheme_7.png"",""x"":457,""y"":657,""move_time"":1484},{""src"":""https://test12345.live/images/schematic_sequence/hotel_scheme/hotel_scheme_9.png"",""x"":627,""y"":657,""move_time"":1699},{""src"":""https://test12345.live/images/schematic_sequence/hotel_scheme/hotel_scheme_8.png"",""x"":796,""y"":657,""move_time"":1117},{""src"":""https://test12345.live/images/schematic_sequence/hotel_scheme/hotel_scheme_ten.png"",""x"":966,""y"":657,""move_time"":1283}]","[{""src"":""https://test12345.live/images/schematic_sequence/hotel_scheme/hotel_scheme_1.png"",""x"":288,""y"":487},{""src"":""https://test12345.live/images/schematic_sequence/hotel_scheme/hotel_scheme_6.png"",""x"":288,""y"":657},{""src"":""https://test12345.live/images/schematic_sequence/hotel_scheme/hotel_scheme_2.png"",""x"":457,""y"":487},{""src"":""https://test12345.live/images/schematic_sequence/hotel_scheme/hotel_scheme_7.png"",""x"":457,""y"":657},{""src"":""https://test12345.live/images/schematic_sequence/hotel_scheme/hotel_scheme_3.png"",""x"":627,""y"":487},{""src"":""https://test12345.live/images/schematic_sequence/hotel_scheme/hotel_scheme_9.png"",""x"":627,""y"":657},{""src"":""https://test12345.live/images/schematic_sequence/hotel_scheme/hotel_scheme_4.png"",""x"":796,""y"":487},{""src"":""https://test12345.live/images/schematic_sequence/hotel_scheme/hotel_scheme_8.png"",""x"":796,""y"":657},{""src"":""https://test12345.live/images/schematic_sequence/hotel_scheme/hotel_scheme_5.png"",""x"":966,""y"":487},{""src"":""https://test12345.live/images/schematic_sequence/hotel_scheme/hotel_scheme_ten.png"",""x"":966,""y"":657}]","14",""
"","order","16","587629","0.0-16.0","87F5A67EB12549BA9F2ACB11087C8F82","conditionA","","45567","[""semantic_sequence/kitchen_operations_semantic/kitchen_operations_semantic_3"",""semantic_sequence/kitchen_operations_semantic/kitchen_operations_semantic_9"",""semantic_sequence/kitchen_operations_semantic/kitchen_operations_semantic_5"",""semantic_sequence/kitchen_operations_semantic/kitchen_operations_semantic_1"",""semantic_sequence/kitchen_operations_semantic/kitchen_operations_semantic_2"",""semantic_sequence/kitchen_operations_semantic/kitchen_operations_semantic_7"",""semantic_sequence/kitchen_operations_semantic/kitchen_operations_semantic_8"",""semantic_sequence/kitchen_operations_semantic/kitchen_operations_semantic_ten"",""semantic_sequence/kitchen_operations_semantic/kitchen_operations_semantic_6"",""semantic_sequence/kitchen_operations_semantic/kitchen_operations_semantic_4""]","[{""src"":""https://test12345.live/images/semantic_sequence/kitchen_operations_semantic/kitchen_operations_semantic_1.png"",""x"":288,""y"":487,""move_time"":26958},{""src"":""https://test12345.live/images/semantic_sequence/kitchen_operations_semantic/kitchen_operations_semantic_2.png"",""x"":457,""y"":487,""move_time"":1650},{""src"":""https://test12345.live/images/semantic_sequence/kitchen_operations_semantic/kitchen_operations_semantic_3.png"",""x"":627,""y"":487,""move_time"":1983},{""src"":""https://test12345.live/images/semantic_sequence/kitchen_operations_semantic/kitchen_operations_semantic_4.png"",""x"":796,""y"":487,""move_time"":2033},{""src"":""https://test12345.live/images/semantic_sequence/kitchen_operations_semantic/kitchen_operations_semantic_5.png"",""x"":966,""y"":487,""move_time"":2266},{""src"":""https://test12345.live/images/semantic_sequence/kitchen_operations_semantic/kitchen_operations_semantic_6.png"",""x"":288,""y"":657,""move_time"":1365},{""src"":""https://test12345.live/images/semantic_sequence/kitchen_operations_semantic/kitchen_operations_semantic_7.png"",""x"":457,""y"":657,""move_time"":967},{""src"":""https://test12345.live/images/semantic_sequence/kitchen_operations_semantic/kitchen_operations_semantic_8.png"",""x"":627,""y"":657,""move_time"":1037},{""src"":""https://test12345.live/images/semantic_sequence/kitchen_operations_semantic/kitchen_operations_semantic_9.png"",""x"":796,""y"":657,""move_time"":1166},{""src"":""https://test12345.live/images/semantic_sequence/kitchen_operations_semantic/kitchen_operations_semantic_ten.png"",""x"":966,""y"":657,""move_time"":1183}]","[{""src"":""https://test12345.live/images/semantic_sequence/kitchen_operations_semantic/kitchen_operations_semantic_1.png"",""x"":288,""y"":487},{""src"":""https://test12345.live/images/semantic_sequence/kitchen_operations_semantic/kitchen_operations_semantic_6.png"",""x"":288,""y"":657},{""src"":""https://test12345.live/images/semantic_sequence/kitchen_operations_semantic/kitchen_operations_semantic_2.png"",""x"":457,""y"":487},{""src"":""https://test12345.live/images/semantic_sequence/kitchen_operations_semantic/kitchen_operations_semantic_7.png"",""x"":457,""y"":657},{""src"":""https://test12345.live/images/semantic_sequence/kitchen_operations_semantic/kitchen_operations_semantic_3.png"",""x"":627,""y"":487},{""src"":""https://test12345.live/images/semantic_sequence/kitchen_operations_semantic/kitchen_operations_semantic_8.png"",""x"":627,""y"":657},{""src"":""https://test12345.live/images/semantic_sequence/kitchen_operations_semantic/kitchen_operations_semantic_4.png"",""x"":796,""y"":487},{""src"":""https://test12345.live/images/semantic_sequence/kitchen_operations_semantic/kitchen_operations_semantic_9.png"",""x"":796,""y"":657},{""src"":""https://test12345.live/images/semantic_sequence/kitchen_operations_semantic/kitchen_operations_semantic_5.png"",""x"":966,""y"":487},{""src"":""https://test12345.live/images/semantic_sequence/kitchen_operations_semantic/kitchen_operations_semantic_ten.png"",""x"":966,""y"":657}]","10",""
"","order","17","616295","0.0-17.0","87F5A67EB12549BA9F2ACB11087C8F82","conditionA","","28666","[""semantic_sequence/creative_activities_semantic/creative_activities_semantic_8"",""semantic_sequence/creative_activities_semantic/creative_activities_semantic_6"",""semantic_sequence/creative_activities_semantic/creative_activities_semantic_4"",""semantic_sequence/creative_activities_semantic/creative_activities_semantic_9"",""semantic_sequence/creative_activities_semantic/creative_activities_semantic_7"",""semantic_sequence/creative_activities_semantic/creative_activities_semantic_ten"",""semantic_sequence/creative_activities_semantic/creative_activities_semantic_3"",""semantic_sequence/creative_activities_semantic/creative_activities_semantic_2"",""semantic_sequence/creative_activities_semantic/creative_activities_semantic_5"",""semantic_sequence/creative_activities_semantic/creative_activities_semantic_1""]","[{""src"":""https://test12345.live/images/semantic_sequence/creative_activities_semantic/creative_activities_semantic_1.png"",""x"":288,""y"":487,""move_time"":14723},{""src"":""https://test12345.live/images/semantic_sequence/creative_activities_semantic/creative_activities_semantic_2.png"",""x"":457,""y"":487,""move_time"":1250},{""src"":""https://test12345.live/images/semantic_sequence/creative_activities_semantic/creative_activities_semantic_3.png"",""x"":627,""y"":487,""move_time"":1150},{""src"":""https://test12345.live/images/semantic_sequence/creative_activities_semantic/creative_activities_semantic_4.png"",""x"":796,""y"":487,""move_time"":1218},{""src"":""https://test12345.live/images/semantic_sequence/creative_activities_semantic/creative_activities_semantic_5.png"",""x"":966,""y"":487,""move_time"":1449},{""src"":""https://test12345.live/images/semantic_sequence/creative_activities_semantic/creative_activities_semantic_6.png"",""x"":288,""y"":657,""move_time"":2134},{""src"":""https://test12345.live/images/semantic_sequence/creative_activities_semantic/creative_activities_semantic_7.png"",""x"":457,""y"":657,""move_time"":1934},{""src"":""https://test12345.live/images/semantic_sequence/creative_activities_semantic/creative_activities_semantic_8.png"",""x"":627,""y"":657,""move_time"":1432},{""src"":""https://test12345.live/images/semantic_sequence/creative_activities_semantic/creative_activities_semantic_9.png"",""x"":796,""y"":657,""move_time"":1266},{""src"":""https://test12345.live/images/semantic_sequence/creative_activities_semantic/creative_activities_semantic_ten.png"",""x"":966,""y"":657,""move_time"":1250}]","[{""src"":""https://test12345.live/images/semantic_sequence/creative_activities_semantic/creative_activities_semantic_1.png"",""x"":288,""y"":487},{""src"":""https://test12345.live/images/semantic_sequence/creative_activities_semantic/creative_activities_semantic_6.png"",""x"":288,""y"":657},{""src"":""https://test12345.live/images/semantic_sequence/creative_activities_semantic/creative_activities_semantic_2.png"",""x"":457,""y"":487},{""src"":""https://test12345.live/images/semantic_sequence/creative_activities_semantic/creative_activities_semantic_7.png"",""x"":457,""y"":657},{""src"":""https://test12345.live/images/semantic_sequence/creative_activities_semantic/creative_activities_semantic_3.png"",""x"":627,""y"":487},{""src"":""https://test12345.live/images/semantic_sequence/creative_activities_semantic/creative_activities_semantic_8.png"",""x"":627,""y"":657},{""src"":""https://test12345.live/images/semantic_sequence/creative_activities_semantic/creative_activities_semantic_4.png"",""x"":796,""y"":487},{""src"":""https://test12345.live/images/semantic_sequence/creative_activities_semantic/creative_activities_semantic_9.png"",""x"":796,""y"":657},{""src"":""https://test12345.live/images/semantic_sequence/creative_activities_semantic/creative_activities_semantic_5.png"",""x"":966,""y"":487},{""src"":""https://test12345.live/images/semantic_sequence/creative_activities_semantic/creative_activities_semantic_ten.png"",""x"":966,""y"":657}]","10",""
"","order","18","661594","0.0-18.0","87F5A67EB12549BA9F2ACB11087C8F82","conditionA","","45299","[""schematic_sequence/dinner_party_scheme/dinner_party_scheme_5"",""schematic_sequence/dinner_party_scheme/dinner_party_scheme_8"",""schematic_sequence/dinner_party_scheme/dinner_party_scheme_2"",""schematic_sequence/dinner_party_scheme/dinner_party_scheme_ten"",""schematic_sequence/dinner_party_scheme/dinner_party_scheme_9"",""schematic_sequence/dinner_party_scheme/dinner_party_scheme_6"",""schematic_sequence/dinner_party_scheme/dinner_party_scheme_1"",""schematic_sequence/dinner_party_scheme/dinner_party_scheme_4"",""schematic_sequence/dinner_party_scheme/dinner_party_scheme_7"",""schematic_sequence/dinner_party_scheme/dinner_party_scheme_3""]","[{""src"":""https://test12345.live/images/schematic_sequence/dinner_party_scheme/dinner_party_scheme_1.png"",""x"":288,""y"":487,""move_time"":12186},{""src"":""https://test12345.live/images/schematic_sequence/dinner_party_scheme/dinner_party_scheme_3.png"",""x"":457,""y"":487,""move_time"":2053},{""src"":""https://test12345.live/images/schematic_sequence/dinner_party_scheme/dinner_party_scheme_4.png"",""x"":457,""y"":272,""move_time"":3481},{""src"":""https://test12345.live/images/schematic_sequence/dinner_party_scheme/dinner_party_scheme_2.png"",""x"":457,""y"":487,""move_time"":1734},{""src"":""https://test12345.live/images/schematic_sequence/dinner_party_scheme/dinner_party_scheme_3.png"",""x"":627,""y"":487,""move_time"":2216},{""src"":""https://test12345.live/images/schematic_sequence/dinner_party_scheme/dinner_party_scheme_ten.png"",""x"":796,""y"":487,""move_time"":7316},{""src"":""https://test12345.live/images/schematic_sequence/dinner_party_scheme/dinner_party_scheme_4.png"",""x"":966,""y"":487,""move_time"":6300},{""src"":""https://test12345.live/images/schematic_sequence/dinner_party_scheme/dinner_party_scheme_5.png"",""x"":288,""y"":657,""move_time"":2233},{""src"":""https://test12345.live/images/schematic_sequence/dinner_party_scheme/dinner_party_scheme_6.png"",""x"":457,""y"":657,""move_time"":2016},{""src"":""https://test12345.live/images/schematic_sequence/dinner_party_scheme/dinner_party_scheme_7.png"",""x"":627,""y"":657,""move_time"":1617},{""src"":""https://test12345.live/images/schematic_sequence/dinner_party_scheme/dinner_party_scheme_9.png"",""x"":796,""y"":657,""move_time"":1601},{""src"":""https://test12345.live/images/schematic_sequence/dinner_party_scheme/dinner_party_scheme_8.png"",""x"":966,""y"":657,""move_time"":1583}]","[{""src"":""https://test12345.live/images/schematic_sequence/dinner_party_scheme/dinner_party_scheme_1.png"",""x"":288,""y"":487},{""src"":""https://test12345.live/images/schematic_sequence/dinner_party_scheme/dinner_party_scheme_5.png"",""x"":288,""y"":657},{""src"":""https://test12345.live/images/schematic_sequence/dinner_party_scheme/dinner_party_scheme_2.png"",""x"":457,""y"":487},{""src"":""https://test12345.live/images/schematic_sequence/dinner_party_scheme/dinner_party_scheme_6.png"",""x"":457,""y"":657},{""src"":""https://test12345.live/images/schematic_sequence/dinner_party_scheme/dinner_party_scheme_3.png"",""x"":627,""y"":487},{""src"":""https://test12345.live/images/schematic_sequence/dinner_party_scheme/dinner_party_scheme_7.png"",""x"":627,""y"":657},{""src"":""https://test12345.live/images/schematic_sequence/dinner_party_scheme/dinner_party_scheme_ten.png"",""x"":796,""y"":487},{""src"":""https://test12345.live/images/schematic_sequence/dinner_party_scheme/dinner_party_scheme_9.png"",""x"":796,""y"":657},{""src"":""https://test12345.live/images/schematic_sequence/dinner_party_scheme/dinner_party_scheme_4.png"",""x"":966,""y"":487},{""src"":""https://test12345.live/images/schematic_sequence/dinner_party_scheme/dinner_party_scheme_8.png"",""x"":966,""y"":657}]","12",""
"","order","19","686245","0.0-19.0","87F5A67EB12549BA9F2ACB11087C8F82","conditionA","","24651","[""semantic_sequence/self_care_activities_semantic/self_care_activities_semantic_2"",""semantic_sequence/self_care_activities_semantic/self_care_activities_semantic_4"",""semantic_sequence/self_care_activities_semantic/self_care_activities_semantic_5"",""semantic_sequence/self_care_activities_semantic/self_care_activities_semantic_6"",""semantic_sequence/self_care_activities_semantic/self_care_activities_semantic_ten"",""semantic_sequence/self_care_activities_semantic/self_care_activities_semantic_8"",""semantic_sequence/self_care_activities_semantic/self_care_activities_semantic_1"",""semantic_sequence/self_care_activities_semantic/self_care_activities_semantic_7"",""semantic_sequence/self_care_activities_semantic/self_care_activities_semantic_3"",""semantic_sequence/self_care_activities_semantic/self_care_activities_semantic_9""]","[{""src"":""https://test12345.live/images/semantic_sequence/self_care_activities_semantic/self_care_activities_semantic_1.png"",""x"":288,""y"":487,""move_time"":11335},{""src"":""https://test12345.live/images/semantic_sequence/self_care_activities_semantic/self_care_activities_semantic_2.png"",""x"":457,""y"":487,""move_time"":1317},{""src"":""https://test12345.live/images/semantic_sequence/self_care_activities_semantic/self_care_activities_semantic_3.png"",""x"":627,""y"":487,""move_time"":1332},{""src"":""https://test12345.live/images/semantic_sequence/self_care_activities_semantic/self_care_activities_semantic_4.png"",""x"":796,""y"":487,""move_time"":1367},{""src"":""https://test12345.live/images/semantic_sequence/self_care_activities_semantic/self_care_activities_semantic_5.png"",""x"":966,""y"":487,""move_time"":1035},{""src"":""https://test12345.live/images/semantic_sequence/self_care_activities_semantic/self_care_activities_semantic_6.png"",""x"":288,""y"":657,""move_time"":1716},{""src"":""https://test12345.live/images/semantic_sequence/self_care_activities_semantic/self_care_activities_semantic_7.png"",""x"":457,""y"":657,""move_time"":1434},{""src"":""https://test12345.live/images/semantic_sequence/self_care_activities_semantic/self_care_activities_semantic_8.png"",""x"":627,""y"":657,""move_time"":1815},{""src"":""https://test12345.live/images/semantic_sequence/self_care_activities_semantic/self_care_activities_semantic_9.png"",""x"":796,""y"":657,""move_time"":1048},{""src"":""https://test12345.live/images/semantic_sequence/self_care_activities_semantic/self_care_activities_semantic_ten.png"",""x"":966,""y"":657,""move_time"":1336}]","[{""src"":""https://test12345.live/images/semantic_sequence/self_care_activities_semantic/self_care_activities_semantic_1.png"",""x"":288,""y"":487},{""src"":""https://test12345.live/images/semantic_sequence/self_care_activities_semantic/self_care_activities_semantic_6.png"",""x"":288,""y"":657},{""src"":""https://test12345.live/images/semantic_sequence/self_care_activities_semantic/self_care_activities_semantic_2.png"",""x"":457,""y"":487},{""src"":""https://test12345.live/images/semantic_sequence/self_care_activities_semantic/self_care_activities_semantic_7.png"",""x"":457,""y"":657},{""src"":""https://test12345.live/images/semantic_sequence/self_care_activities_semantic/self_care_activities_semantic_3.png"",""x"":627,""y"":487},{""src"":""https://test12345.live/images/semantic_sequence/self_care_activities_semantic/self_care_activities_semantic_8.png"",""x"":627,""y"":657},{""src"":""https://test12345.live/images/semantic_sequence/self_care_activities_semantic/self_care_activities_semantic_4.png"",""x"":796,""y"":487},{""src"":""https://test12345.live/images/semantic_sequence/self_care_activities_semantic/self_care_activities_semantic_9.png"",""x"":796,""y"":657},{""src"":""https://test12345.live/images/semantic_sequence/self_care_activities_semantic/self_care_activities_semantic_5.png"",""x"":966,""y"":487},{""src"":""https://test12345.live/images/semantic_sequence/self_care_activities_semantic/self_care_activities_semantic_ten.png"",""x"":966,""y"":657}]","10",""
"","order","20","708295","0.0-20.0","87F5A67EB12549BA9F2ACB11087C8F82","conditionA","","22049","[""semantic_sequence/market_semantic/market_semantic_8"",""semantic_sequence/market_semantic/market_semantic_1"",""semantic_sequence/market_semantic/market_semantic_4"",""semantic_sequence/market_semantic/market_semantic_3"",""semantic_sequence/market_semantic/market_semantic_7"",""semantic_sequence/market_semantic/market_semantic_9"",""semantic_sequence/market_semantic/market_semantic_ten"",""semantic_sequence/market_semantic/market_semantic_2"",""semantic_sequence/market_semantic/market_semantic_6"",""semantic_sequence/market_semantic/market_semantic_5""]","[{""src"":""https://test12345.live/images/semantic_sequence/market_semantic/market_semantic_1.png"",""x"":288,""y"":487,""move_time"":7718},{""src"":""https://test12345.live/images/semantic_sequence/market_semantic/market_semantic_2.png"",""x"":457,""y"":487,""move_time"":1316},{""src"":""https://test12345.live/images/semantic_sequence/market_semantic/market_semantic_3.png"",""x"":627,""y"":487,""move_time"":1449},{""src"":""https://test12345.live/images/semantic_sequence/market_semantic/market_semantic_4.png"",""x"":796,""y"":487,""move_time"":1234},{""src"":""https://test12345.live/images/semantic_sequence/market_semantic/market_semantic_5.png"",""x"":966,""y"":487,""move_time"":1065},{""src"":""https://test12345.live/images/semantic_sequence/market_semantic/market_semantic_6.png"",""x"":288,""y"":657,""move_time"":1919},{""src"":""https://test12345.live/images/semantic_sequence/market_semantic/market_semantic_7.png"",""x"":457,""y"":657,""move_time"":1816},{""src"":""https://test12345.live/images/semantic_sequence/market_semantic/market_semantic_8.png"",""x"":627,""y"":657,""move_time"":2015},{""src"":""https://test12345.live/images/semantic_sequence/market_semantic/market_semantic_9.png"",""x"":796,""y"":657,""move_time"":1051},{""src"":""https://test12345.live/images/semantic_sequence/market_semantic/market_semantic_ten.png"",""x"":966,""y"":657,""move_time"":1034}]","[{""src"":""https://test12345.live/images/semantic_sequence/market_semantic/market_semantic_1.png"",""x"":288,""y"":487},{""src"":""https://test12345.live/images/semantic_sequence/market_semantic/market_semantic_6.png"",""x"":288,""y"":657},{""src"":""https://test12345.live/images/semantic_sequence/market_semantic/market_semantic_2.png"",""x"":457,""y"":487},{""src"":""https://test12345.live/images/semantic_sequence/market_semantic/market_semantic_7.png"",""x"":457,""y"":657},{""src"":""https://test12345.live/images/semantic_sequence/market_semantic/market_semantic_3.png"",""x"":627,""y"":487},{""src"":""https://test12345.live/images/semantic_sequence/market_semantic/market_semantic_8.png"",""x"":627,""y"":657},{""src"":""https://test12345.live/images/semantic_sequence/market_semantic/market_semantic_4.png"",""x"":796,""y"":487},{""src"":""https://test12345.live/images/semantic_sequence/market_semantic/market_semantic_9.png"",""x"":796,""y"":657},{""src"":""https://test12345.live/images/semantic_sequence/market_semantic/market_semantic_5.png"",""x"":966,""y"":487},{""src"":""https://test12345.live/images/semantic_sequence/market_semantic/market_semantic_ten.png"",""x"":966,""y"":657}]","10",""
"","order","21","737858","0.0-21.0","87F5A67EB12549BA9F2ACB11087C8F82","conditionA","","29563","[""semantic_sequence/traveling_semantic/traveling_semantic_ten"",""semantic_sequence/traveling_semantic/traveling_semantic_8"",""semantic_sequence/traveling_semantic/traveling_semantic_5"",""semantic_sequence/traveling_semantic/traveling_semantic_3"",""semantic_sequence/traveling_semantic/traveling_semantic_7"",""semantic_sequence/traveling_semantic/traveling_semantic_4"",""semantic_sequence/traveling_semantic/traveling_semantic_2"",""semantic_sequence/traveling_semantic/traveling_semantic_9"",""semantic_sequence/traveling_semantic/traveling_semantic_1"",""semantic_sequence/traveling_semantic/traveling_semantic_6""]","[{""src"":""https://test12345.live/images/semantic_sequence/traveling_semantic/traveling_semantic_1.png"",""x"":288,""y"":487,""move_time"":12030},{""src"":""https://test12345.live/images/semantic_sequence/traveling_semantic/traveling_semantic_2.png"",""x"":457,""y"":487,""move_time"":1133},{""src"":""https://test12345.live/images/semantic_sequence/traveling_semantic/traveling_semantic_3.png"",""x"":627,""y"":487,""move_time"":2335},{""src"":""https://test12345.live/images/semantic_sequence/traveling_semantic/traveling_semantic_4.png"",""x"":796,""y"":487,""move_time"":1998},{""src"":""https://test12345.live/images/semantic_sequence/traveling_semantic/traveling_semantic_5.png"",""x"":966,""y"":487,""move_time"":1400},{""src"":""https://test12345.live/images/semantic_sequence/traveling_semantic/traveling_semantic_6.png"",""x"":288,""y"":657,""move_time"":1183},{""src"":""https://test12345.live/images/semantic_sequence/traveling_semantic/traveling_semantic_7.png"",""x"":457,""y"":657,""move_time"":1567},{""src"":""https://test12345.live/images/semantic_sequence/traveling_semantic/traveling_semantic_ten.png"",""x"":288,""y"":102,""move_time"":3817},{""src"":""https://test12345.live/images/semantic_sequence/traveling_semantic/traveling_semantic_8.png"",""x"":627,""y"":657,""move_time"":967},{""src"":""https://test12345.live/images/semantic_sequence/traveling_semantic/traveling_semantic_9.png"",""x"":796,""y"":657,""move_time"":983},{""src"":""https://test12345.live/images/semantic_sequence/traveling_semantic/traveling_semantic_ten.png"",""x"":966,""y"":657,""move_time"":1300}]","[{""src"":""https://test12345.live/images/semantic_sequence/traveling_semantic/traveling_semantic_1.png"",""x"":288,""y"":487},{""src"":""https://test12345.live/images/semantic_sequence/traveling_semantic/traveling_semantic_6.png"",""x"":288,""y"":657},{""src"":""https://test12345.live/images/semantic_sequence/traveling_semantic/traveling_semantic_2.png"",""x"":457,""y"":487},{""src"":""https://test12345.live/images/semantic_sequence/traveling_semantic/traveling_semantic_7.png"",""x"":457,""y"":657},{""src"":""https://test12345.live/images/semantic_sequence/traveling_semantic/traveling_semantic_3.png"",""x"":627,""y"":487},{""src"":""https://test12345.live/images/semantic_sequence/traveling_semantic/traveling_semantic_8.png"",""x"":627,""y"":657},{""src"":""https://test12345.live/images/semantic_sequence/traveling_semantic/traveling_semantic_4.png"",""x"":796,""y"":487},{""src"":""https://test12345.live/images/semantic_sequence/traveling_semantic/traveling_semantic_9.png"",""x"":796,""y"":657},{""src"":""https://test12345.live/images/semantic_sequence/traveling_semantic/traveling_semantic_5.png"",""x"":966,""y"":487},{""src"":""https://test12345.live/images/semantic_sequence/traveling_semantic/traveling_semantic_ten.png"",""x"":966,""y"":657}]","11",""
"","order","22","783279","0.0-22.0","87F5A67EB12549BA9F2ACB11087C8F82","conditionA","","45419","[""causal_sequence/the_performance_causal/the_performance_causal_5"",""causal_sequence/the_performance_causal/the_performance_causal_9"",""causal_sequence/the_performance_causal/the_performance_causal_8"",""causal_sequence/the_performance_causal/the_performance_causal_7"",""causal_sequence/the_performance_causal/the_performance_causal_ten"",""causal_sequence/the_performance_causal/the_performance_causal_3"",""causal_sequence/the_performance_causal/the_performance_causal_4"",""causal_sequence/the_performance_causal/the_performance_causal_1"",""causal_sequence/the_performance_causal/the_performance_causal_2"",""causal_sequence/the_performance_causal/the_performance_causal_6""]","[{""src"":""https://test12345.live/images/causal_sequence/the_performance_causal/the_performance_causal_2.png"",""x"":796,""y"":272,""move_time"":22179},{""src"":""https://test12345.live/images/causal_sequence/the_performance_causal/the_performance_causal_1.png"",""x"":288,""y"":487,""move_time"":1601},{""src"":""https://test12345.live/images/causal_sequence/the_performance_causal/the_performance_causal_2.png"",""x"":457,""y"":487,""move_time"":4316},{""src"":""https://test12345.live/images/causal_sequence/the_performance_causal/the_performance_causal_3.png"",""x"":627,""y"":487,""move_time"":2233},{""src"":""https://test12345.live/images/causal_sequence/the_performance_causal/the_performance_causal_4.png"",""x"":796,""y"":487,""move_time"":2667},{""src"":""https://test12345.live/images/causal_sequence/the_performance_causal/the_performance_causal_5.png"",""x"":966,""y"":487,""move_time"":2233},{""src"":""https://test12345.live/images/causal_sequence/the_performance_causal/the_performance_causal_6.png"",""x"":288,""y"":657,""move_time"":1516},{""src"":""https://test12345.live/images/causal_sequence/the_performance_causal/the_performance_causal_7.png"",""x"":457,""y"":657,""move_time"":3952},{""src"":""https://test12345.live/images/causal_sequence/the_performance_causal/the_performance_causal_8.png"",""x"":627,""y"":657,""move_time"":1199},{""src"":""https://test12345.live/images/causal_sequence/the_performance_causal/the_performance_causal_9.png"",""x"":796,""y"":657,""move_time"":1433},{""src"":""https://test12345.live/images/causal_sequence/the_performance_causal/the_performance_causal_ten.png"",""x"":966,""y"":657,""move_time"":1467}]","[{""src"":""https://test12345.live/images/causal_sequence/the_performance_causal/the_performance_causal_1.png"",""x"":288,""y"":487},{""src"":""https://test12345.live/images/causal_sequence/the_performance_causal/the_performance_causal_6.png"",""x"":288,""y"":657},{""src"":""https://test12345.live/images/causal_sequence/the_performance_causal/the_performance_causal_2.png"",""x"":457,""y"":487},{""src"":""https://test12345.live/images/causal_sequence/the_performance_causal/the_performance_causal_7.png"",""x"":457,""y"":657},{""src"":""https://test12345.live/images/causal_sequence/the_performance_causal/the_performance_causal_3.png"",""x"":627,""y"":487},{""src"":""https://test12345.live/images/causal_sequence/the_performance_causal/the_performance_causal_8.png"",""x"":627,""y"":657},{""src"":""https://test12345.live/images/causal_sequence/the_performance_causal/the_performance_causal_4.png"",""x"":796,""y"":487},{""src"":""https://test12345.live/images/causal_sequence/the_performance_causal/the_performance_causal_9.png"",""x"":796,""y"":657},{""src"":""https://test12345.live/images/causal_sequence/the_performance_causal/the_performance_causal_5.png"",""x"":966,""y"":487},{""src"":""https://test12345.live/images/causal_sequence/the_performance_causal/the_performance_causal_ten.png"",""x"":966,""y"":657}]","11",""
"","order","23","810794","0.0-23.0","87F5A67EB12549BA9F2ACB11087C8F82","conditionA","","27515","[""semantic_sequence/using_technology_semantic/using_technology_semantic_2"",""semantic_sequence/using_technology_semantic/using_technology_semantic_5"",""semantic_sequence/using_technology_semantic/using_technology_semantic_1"",""semantic_sequence/using_technology_semantic/using_technology_semantic_3"",""semantic_sequence/using_technology_semantic/using_technology_semantic_7"",""semantic_sequence/using_technology_semantic/using_technology_semantic_4"",""semantic_sequence/using_technology_semantic/using_technology_semantic_9"",""semantic_sequence/using_technology_semantic/using_technology_semantic_8"",""semantic_sequence/using_technology_semantic/using_technology_semantic_6"",""semantic_sequence/using_technology_semantic/using_technology_semantic_ten""]","[{""src"":""https://test12345.live/images/semantic_sequence/using_technology_semantic/using_technology_semantic_1.png"",""x"":288,""y"":487,""move_time"":13656},{""src"":""https://test12345.live/images/semantic_sequence/using_technology_semantic/using_technology_semantic_2.png"",""x"":457,""y"":487,""move_time"":1433},{""src"":""https://test12345.live/images/semantic_sequence/using_technology_semantic/using_technology_semantic_3.png"",""x"":627,""y"":487,""move_time"":1418},{""src"":""https://test12345.live/images/semantic_sequence/using_technology_semantic/using_technology_semantic_4.png"",""x"":796,""y"":487,""move_time"":1450},{""src"":""https://test12345.live/images/semantic_sequence/using_technology_semantic/using_technology_semantic_5.png"",""x"":966,""y"":487,""move_time"":2834},{""src"":""https://test12345.live/images/semantic_sequence/using_technology_semantic/using_technology_semantic_6.png"",""x"":288,""y"":657,""move_time"":1201},{""src"":""https://test12345.live/images/semantic_sequence/using_technology_semantic/using_technology_semantic_7.png"",""x"":457,""y"":657,""move_time"":1314},{""src"":""https://test12345.live/images/semantic_sequence/using_technology_semantic/using_technology_semantic_8.png"",""x"":627,""y"":657,""move_time"":1266},{""src"":""https://test12345.live/images/semantic_sequence/using_technology_semantic/using_technology_semantic_9.png"",""x"":796,""y"":657,""move_time"":1185},{""src"":""https://test12345.live/images/semantic_sequence/using_technology_semantic/using_technology_semantic_ten.png"",""x"":966,""y"":657,""move_time"":1018}]","[{""src"":""https://test12345.live/images/semantic_sequence/using_technology_semantic/using_technology_semantic_1.png"",""x"":288,""y"":487},{""src"":""https://test12345.live/images/semantic_sequence/using_technology_semantic/using_technology_semantic_6.png"",""x"":288,""y"":657},{""src"":""https://test12345.live/images/semantic_sequence/using_technology_semantic/using_technology_semantic_2.png"",""x"":457,""y"":487},{""src"":""https://test12345.live/images/semantic_sequence/using_technology_semantic/using_technology_semantic_7.png"",""x"":457,""y"":657},{""src"":""https://test12345.live/images/semantic_sequence/using_technology_semantic/using_technology_semantic_3.png"",""x"":627,""y"":487},{""src"":""https://test12345.live/images/semantic_sequence/using_technology_semantic/using_technology_semantic_8.png"",""x"":627,""y"":657},{""src"":""https://test12345.live/images/semantic_sequence/using_technology_semantic/using_technology_semantic_4.png"",""x"":796,""y"":487},{""src"":""https://test12345.live/images/semantic_sequence/using_technology_semantic/using_technology_semantic_9.png"",""x"":796,""y"":657},{""src"":""https://test12345.live/images/semantic_sequence/using_technology_semantic/using_technology_semantic_5.png"",""x"":966,""y"":487},{""src"":""https://test12345.live/images/semantic_sequence/using_technology_semantic/using_technology_semantic_ten.png"",""x"":966,""y"":657}]","10",""
"","order","24","877445","0.0-24.0","87F5A67EB12549BA9F2ACB11087C8F82","conditionA","","66653","[""semantic_sequence/housework_semantic/housework_semantic_8"",""semantic_sequence/housework_semantic/housework_semantic_6"",""semantic_sequence/housework_semantic/housework_semantic_ten"",""semantic_sequence/housework_semantic/housework_semantic_5"",""semantic_sequence/housework_semantic/housework_semantic_9"",""semantic_sequence/housework_semantic/housework_semantic_3"",""semantic_sequence/housework_semantic/housework_semantic_1"",""semantic_sequence/housework_semantic/housework_semantic_7"",""semantic_sequence/housework_semantic/housework_semantic_2"",""semantic_sequence/housework_semantic/housework_semantic_4""]","[{""src"":""https://test12345.live/images/semantic_sequence/housework_semantic/housework_semantic_ten.png"",""x"":288,""y"":487,""move_time"":20308},{""src"":""https://test12345.live/images/semantic_sequence/housework_semantic/housework_semantic_6.png"",""x"":457,""y"":487,""move_time"":17547},{""src"":""https://test12345.live/images/semantic_sequence/housework_semantic/housework_semantic_1.png"",""x"":627,""y"":487,""move_time"":4050},{""src"":""https://test12345.live/images/semantic_sequence/housework_semantic/housework_semantic_2.png"",""x"":796,""y"":487,""move_time"":1565},{""src"":""https://test12345.live/images/semantic_sequence/housework_semantic/housework_semantic_3.png"",""x"":966,""y"":487,""move_time"":1701},{""src"":""https://test12345.live/images/semantic_sequence/housework_semantic/housework_semantic_5.png"",""x"":288,""y"":657,""move_time"":12934},{""src"":""https://test12345.live/images/semantic_sequence/housework_semantic/housework_semantic_4.png"",""x"":457,""y"":657,""move_time"":4049},{""src"":""https://test12345.live/images/semantic_sequence/housework_semantic/housework_semantic_7.png"",""x"":627,""y"":657,""move_time"":1316},{""src"":""https://test12345.live/images/semantic_sequence/housework_semantic/housework_semantic_8.png"",""x"":796,""y"":657,""move_time"":1218},{""src"":""https://test12345.live/images/semantic_sequence/housework_semantic/housework_semantic_9.png"",""x"":966,""y"":657,""move_time"":1249}]","[{""src"":""https://test12345.live/images/semantic_sequence/housework_semantic/housework_semantic_ten.png"",""x"":288,""y"":487},{""src"":""https://test12345.live/images/semantic_sequence/housework_semantic/housework_semantic_5.png"",""x"":288,""y"":657},{""src"":""https://test12345.live/images/semantic_sequence/housework_semantic/housework_semantic_6.png"",""x"":457,""y"":487},{""src"":""https://test12345.live/images/semantic_sequence/housework_semantic/housework_semantic_4.png"",""x"":457,""y"":657},{""src"":""https://test12345.live/images/semantic_sequence/housework_semantic/housework_semantic_1.png"",""x"":627,""y"":487},{""src"":""https://test12345.live/images/semantic_sequence/housework_semantic/housework_semantic_7.png"",""x"":627,""y"":657},{""src"":""https://test12345.live/images/semantic_sequence/housework_semantic/housework_semantic_2.png"",""x"":796,""y"":487},{""src"":""https://test12345.live/images/semantic_sequence/housework_semantic/housework_semantic_8.png"",""x"":796,""y"":657},{""src"":""https://test12345.live/images/semantic_sequence/housework_semantic/housework_semantic_3.png"",""x"":966,""y"":487},{""src"":""https://test12345.live/images/semantic_sequence/housework_semantic/housework_semantic_9.png"",""x"":966,""y"":657}]","10",""
"","order","25","917377","0.0-25.0","87F5A67EB12549BA9F2ACB11087C8F82","conditionA","","39932","[""causal_sequence/package_causal/package_causal_7"",""causal_sequence/package_causal/package_causal_1"",""causal_sequence/package_causal/package_causal_9"",""causal_sequence/package_causal/package_causal_8"",""causal_sequence/package_causal/package_causal_4"",""causal_sequence/package_causal/package_causal_6"",""causal_sequence/package_causal/package_causal_ten"",""causal_sequence/package_causal/package_causal_3"",""causal_sequence/package_causal/package_causal_2"",""causal_sequence/package_causal/package_causal_5""]","[{""src"":""https://test12345.live/images/causal_sequence/package_causal/package_causal_3.png"",""x"":288,""y"":487,""move_time"":18983},{""src"":""https://test12345.live/images/causal_sequence/package_causal/package_causal_3.png"",""x"":627,""y"":272,""move_time"":2933},{""src"":""https://test12345.live/images/causal_sequence/package_causal/package_causal_2.png"",""x"":288,""y"":487,""move_time"":1232},{""src"":""https://test12345.live/images/causal_sequence/package_causal/package_causal_3.png"",""x"":457,""y"":487,""move_time"":1483},{""src"":""https://test12345.live/images/causal_sequence/package_causal/package_causal_4.png"",""x"":627,""y"":487,""move_time"":2435},{""src"":""https://test12345.live/images/causal_sequence/package_causal/package_causal_5.png"",""x"":796,""y"":487,""move_time"":1782},{""src"":""https://test12345.live/images/causal_sequence/package_causal/package_causal_6.png"",""x"":966,""y"":487,""move_time"":2015},{""src"":""https://test12345.live/images/causal_sequence/package_causal/package_causal_1.png"",""x"":288,""y"":657,""move_time"":2535},{""src"":""https://test12345.live/images/causal_sequence/package_causal/package_causal_7.png"",""x"":457,""y"":657,""move_time"":1716},{""src"":""https://test12345.live/images/causal_sequence/package_causal/package_causal_8.png"",""x"":627,""y"":657,""move_time"":1350},{""src"":""https://test12345.live/images/causal_sequence/package_causal/package_causal_9.png"",""x"":796,""y"":657,""move_time"":1235},{""src"":""https://test12345.live/images/causal_sequence/package_causal/package_causal_ten.png"",""x"":966,""y"":657,""move_time"":1334}]","[{""src"":""https://test12345.live/images/causal_sequence/package_causal/package_causal_2.png"",""x"":288,""y"":487},{""src"":""https://test12345.live/images/causal_sequence/package_causal/package_causal_1.png"",""x"":288,""y"":657},{""src"":""https://test12345.live/images/causal_sequence/package_causal/package_causal_3.png"",""x"":457,""y"":487},{""src"":""https://test12345.live/images/causal_sequence/package_causal/package_causal_7.png"",""x"":457,""y"":657},{""src"":""https://test12345.live/images/causal_sequence/package_causal/package_causal_4.png"",""x"":627,""y"":487},{""src"":""https://test12345.live/images/causal_sequence/package_causal/package_causal_8.png"",""x"":627,""y"":657},{""src"":""https://test12345.live/images/causal_sequence/package_causal/package_causal_5.png"",""x"":796,""y"":487},{""src"":""https://test12345.live/images/causal_sequence/package_causal/package_causal_9.png"",""x"":796,""y"":657},{""src"":""https://test12345.live/images/causal_sequence/package_causal/package_causal_6.png"",""x"":966,""y"":487},{""src"":""https://test12345.live/images/causal_sequence/package_causal/package_causal_ten.png"",""x"":966,""y"":657}]","12",""
"","order","26","956826","0.0-26.0","87F5A67EB12549BA9F2ACB11087C8F82","conditionA","","39449","[""causal_sequence/dog_causal/dog_causal_8"",""causal_sequence/dog_causal/dog_causal_9"",""causal_sequence/dog_causal/dog_causal_4"",""causal_sequence/dog_causal/dog_causal_ten"",""causal_sequence/dog_causal/dog_causal_6"",""causal_sequence/dog_causal/dog_causal_7"",""causal_sequence/dog_causal/dog_causal_5"",""causal_sequence/dog_causal/dog_causal_1"",""causal_sequence/dog_causal/dog_causal_2"",""causal_sequence/dog_causal/dog_causal_3""]","[{""src"":""https://test12345.live/images/causal_sequence/dog_causal/dog_causal_1.png"",""x"":288,""y"":487,""move_time"":18817},{""src"":""https://test12345.live/images/causal_sequence/dog_causal/dog_causal_2.png"",""x"":457,""y"":487,""move_time"":1297},{""src"":""https://test12345.live/images/causal_sequence/dog_causal/dog_causal_3.png"",""x"":627,""y"":487,""move_time"":1737},{""src"":""https://test12345.live/images/causal_sequence/dog_causal/dog_causal_4.png"",""x"":796,""y"":487,""move_time"":3029},{""src"":""https://test12345.live/images/causal_sequence/dog_causal/dog_causal_6.png"",""x"":966,""y"":102,""move_time"":3218},{""src"":""https://test12345.live/images/causal_sequence/dog_causal/dog_causal_5.png"",""x"":966,""y"":487,""move_time"":1299},{""src"":""https://test12345.live/images/causal_sequence/dog_causal/dog_causal_6.png"",""x"":288,""y"":657,""move_time"":1483},{""src"":""https://test12345.live/images/causal_sequence/dog_causal/dog_causal_7.png"",""x"":457,""y"":657,""move_time"":1550},{""src"":""https://test12345.live/images/causal_sequence/dog_causal/dog_causal_8.png"",""x"":627,""y"":657,""move_time"":3285},{""src"":""https://test12345.live/images/causal_sequence/dog_causal/dog_causal_9.png"",""x"":796,""y"":657,""move_time"":1348},{""src"":""https://test12345.live/images/causal_sequence/dog_causal/dog_causal_ten.png"",""x"":966,""y"":657,""move_time"":1367}]","[{""src"":""https://test12345.live/images/causal_sequence/dog_causal/dog_causal_1.png"",""x"":288,""y"":487},{""src"":""https://test12345.live/images/causal_sequence/dog_causal/dog_causal_6.png"",""x"":288,""y"":657},{""src"":""https://test12345.live/images/causal_sequence/dog_causal/dog_causal_2.png"",""x"":457,""y"":487},{""src"":""https://test12345.live/images/causal_sequence/dog_causal/dog_causal_7.png"",""x"":457,""y"":657},{""src"":""https://test12345.live/images/causal_sequence/dog_causal/dog_causal_3.png"",""x"":627,""y"":487},{""src"":""https://test12345.live/images/causal_sequence/dog_causal/dog_causal_8.png"",""x"":627,""y"":657},{""src"":""https://test12345.live/images/causal_sequence/dog_causal/dog_causal_4.png"",""x"":796,""y"":487},{""src"":""https://test12345.live/images/causal_sequence/dog_causal/dog_causal_9.png"",""x"":796,""y"":657},{""src"":""https://test12345.live/images/causal_sequence/dog_causal/dog_causal_5.png"",""x"":966,""y"":487},{""src"":""https://test12345.live/images/causal_sequence/dog_causal/dog_causal_ten.png"",""x"":966,""y"":657}]","11",""
"","order","27","997076","0.0-27.0","87F5A67EB12549BA9F2ACB11087C8F82","conditionA","","40250","[""schematic_sequence/interview_scheme/interview_scheme_4"",""schematic_sequence/interview_scheme/interview_scheme_9"",""schematic_sequence/interview_scheme/interview_scheme_7"",""schematic_sequence/interview_scheme/interview_scheme_5"",""schematic_sequence/interview_scheme/interview_scheme_1"",""schematic_sequence/interview_scheme/interview_scheme_2"",""schematic_sequence/interview_scheme/interview_scheme_ten"",""schematic_sequence/interview_scheme/interview_scheme_6"",""schematic_sequence/interview_scheme/interview_scheme_8"",""schematic_sequence/interview_scheme/interview_scheme_3""]","[{""src"":""https://test12345.live/images/schematic_sequence/interview_scheme/interview_scheme_2.png"",""x"":288,""y"":487,""move_time"":15128},{""src"":""https://test12345.live/images/schematic_sequence/interview_scheme/interview_scheme_2.png"",""x"":288,""y"":272,""move_time"":3566},{""src"":""https://test12345.live/images/schematic_sequence/interview_scheme/interview_scheme_1.png"",""x"":288,""y"":487,""move_time"":2401},{""src"":""https://test12345.live/images/schematic_sequence/interview_scheme/interview_scheme_2.png"",""x"":457,""y"":487,""move_time"":2250},{""src"":""https://test12345.live/images/schematic_sequence/interview_scheme/interview_scheme_3.png"",""x"":627,""y"":487,""move_time"":4183},{""src"":""https://test12345.live/images/schematic_sequence/interview_scheme/interview_scheme_4.png"",""x"":796,""y"":487,""move_time"":2217},{""src"":""https://test12345.live/images/schematic_sequence/interview_scheme/interview_scheme_5.png"",""x"":966,""y"":487,""move_time"":3384},{""src"":""https://test12345.live/images/schematic_sequence/interview_scheme/interview_scheme_6.png"",""x"":288,""y"":657,""move_time"":1449},{""src"":""https://test12345.live/images/schematic_sequence/interview_scheme/interview_scheme_7.png"",""x"":457,""y"":657,""move_time"":1333},{""src"":""https://test12345.live/images/schematic_sequence/interview_scheme/interview_scheme_8.png"",""x"":627,""y"":657,""move_time"":1018},{""src"":""https://test12345.live/images/schematic_sequence/interview_scheme/interview_scheme_9.png"",""x"":796,""y"":657,""move_time"":1266},{""src"":""https://test12345.live/images/schematic_sequence/interview_scheme/interview_scheme_ten.png"",""x"":966,""y"":657,""move_time"":1401}]","[{""src"":""https://test12345.live/images/schematic_sequence/interview_scheme/interview_scheme_1.png"",""x"":288,""y"":487},{""src"":""https://test12345.live/images/schematic_sequence/interview_scheme/interview_scheme_6.png"",""x"":288,""y"":657},{""src"":""https://test12345.live/images/schematic_sequence/interview_scheme/interview_scheme_2.png"",""x"":457,""y"":487},{""src"":""https://test12345.live/images/schematic_sequence/interview_scheme/interview_scheme_7.png"",""x"":457,""y"":657},{""src"":""https://test12345.live/images/schematic_sequence/interview_scheme/interview_scheme_3.png"",""x"":627,""y"":487},{""src"":""https://test12345.live/images/schematic_sequence/interview_scheme/interview_scheme_8.png"",""x"":627,""y"":657},{""src"":""https://test12345.live/images/schematic_sequence/interview_scheme/interview_scheme_4.png"",""x"":796,""y"":487},{""src"":""https://test12345.live/images/schematic_sequence/interview_scheme/interview_scheme_9.png"",""x"":796,""y"":657},{""src"":""https://test12345.live/images/schematic_sequence/interview_scheme/interview_scheme_5.png"",""x"":966,""y"":487},{""src"":""https://test12345.live/images/schematic_sequence/interview_scheme/interview_scheme_ten.png"",""x"":966,""y"":657}]","12",""
"","survey-text","28","999710","0.0-28.0","87F5A67EB12549BA9F2ACB11087C8F82","conditionA","","2625.5999999996275","","","","","{""Q0"":""32""}"
"","survey-text","29","1003174","0.0-29.0","87F5A67EB12549BA9F2ACB11087C8F82","conditionA","","3463.4000000003725","","","","","{""Q0"":""FEMALE""}"
"","instructions","30","1006076","0.0-30.0","87F5A67EB12549BA9F2ACB11087C8F82","conditionA","[{""page_index"":0,""viewing_time"":2901.2999999988824}]","2901.699999999255","","","","",""
