"success","trial_type","trial_index","time_elapsed","internal_node_id","subject","condition","view_history","rt","initial_locations","moves","final_locations_3","number_of_moves","responses"
"true","fullscreen","0","21089","0.0-0.0","8A89FC51D4B64D09AB3E6F9D50A92459","conditionC","","","","","","",""
"","instructions","1","66237","0.0-1.0","8A89FC51D4B64D09AB3E6F9D50A92459","conditionC","[{""page_index"":0,""viewing_time"":1631.2000000029802},{""page_index"":1,""viewing_time"":19249.79999999702},{""page_index"":2,""viewing_time"":3451.8000000044703},{""page_index"":3,""viewing_time"":19249.5},{""page_index"":4,""viewing_time"":1566.5}]","45149.10000000149","","","","",""
"","order","2","85120","0.0-2.0","8A89FC51D4B64D09AB3E6F9D50A92459","conditionC","","18883","[""instructions/movie_4"",""instructions/movie_3"",""instructions/movie_2"",""instructions/movie_1"",""blank"",""blank"",""blank"",""blank"",""blank"",""blank""]","[{""src"":""https://test12345.live/images/instructions/movie_1.png"",""x"":284,""y"":430,""move_time"":5869},{""src"":""https://test12345.live/images/instructions/movie_2.png"",""x"":451,""y"":430,""move_time"":2434},{""src"":""https://test12345.live/images/instructions/movie_3.png"",""x"":618,""y"":430,""move_time"":1663},{""src"":""https://test12345.live/images/instructions/movie_4.png"",""x"":785,""y"":430,""move_time"":2068}]","[{""src"":""https://test12345.live/images/instructions/movie_1.png"",""x"":284,""y"":430},{""src"":""https://test12345.live/images/blank6.jpg"",""x"":284,""y"":597},{""src"":""https://test12345.live/images/instructions/movie_2.png"",""x"":451,""y"":430},{""src"":""https://test12345.live/images/blank7.jpg"",""x"":451,""y"":597},{""src"":""https://test12345.live/images/instructions/movie_3.png"",""x"":618,""y"":430},{""src"":""https://test12345.live/images/blank8.jpg"",""x"":618,""y"":597},{""src"":""https://test12345.live/images/instructions/movie_4.png"",""x"":785,""y"":430},{""src"":""https://test12345.live/images/blank9.jpg"",""x"":785,""y"":597},{""src"":""https://test12345.live/images/blank5.jpg"",""x"":953,""y"":430},{""src"":""https://test12345.live/images/blank10.jpg"",""x"":953,""y"":597}]","4",""
"","instructions","3","88186","0.0-3.0","8A89FC51D4B64D09AB3E6F9D50A92459","conditionC","[{""page_index"":0,""viewing_time"":3065.1999999955297}]","3065.39999999851","","","","",""
"","order","4","155787","0.0-4.0","8A89FC51D4B64D09AB3E6F9D50A92459","conditionC","","67602","[""schematic_sequence/hotel_scheme/hotel_scheme_3"",""schematic_sequence/hotel_scheme/hotel_scheme_7"",""schematic_sequence/hotel_scheme/hotel_scheme_ten"",""schematic_sequence/hotel_scheme/hotel_scheme_4"",""schematic_sequence/hotel_scheme/hotel_scheme_2"",""schematic_sequence/hotel_scheme/hotel_scheme_6"",""schematic_sequence/hotel_scheme/hotel_scheme_1"",""schematic_sequence/hotel_scheme/hotel_scheme_9"",""schematic_sequence/hotel_scheme/hotel_scheme_8"",""schematic_sequence/hotel_scheme/hotel_scheme_5""]","[{""src"":""https://test12345.live/images/schematic_sequence/hotel_scheme/hotel_scheme_3.png"",""x"":284,""y"":430,""move_time"":10468},{""src"":""https://test12345.live/images/schematic_sequence/hotel_scheme/hotel_scheme_4.png"",""x"":785,""y"":50,""move_time"":3300},{""src"":""https://test12345.live/images/schematic_sequence/hotel_scheme/hotel_scheme_3.png"",""x"":451,""y"":430,""move_time"":1482},{""src"":""https://test12345.live/images/schematic_sequence/hotel_scheme/hotel_scheme_2.png"",""x"":284,""y"":430,""move_time"":1901},{""src"":""https://test12345.live/images/schematic_sequence/hotel_scheme/hotel_scheme_4.png"",""x"":785,""y"":430,""move_time"":5818},{""src"":""https://test12345.live/images/schematic_sequence/hotel_scheme/hotel_scheme_3.png"",""x"":618,""y"":430,""move_time"":1366},{""src"":""https://test12345.live/images/schematic_sequence/hotel_scheme/hotel_scheme_2.png"",""x"":451,""y"":430,""move_time"":1301},{""src"":""https://test12345.live/images/schematic_sequence/hotel_scheme/hotel_scheme_1.png"",""x"":284,""y"":430,""move_time"":1517},{""src"":""https://test12345.live/images/schematic_sequence/hotel_scheme/hotel_scheme_5.png"",""x"":953,""y"":430,""move_time"":5816},{""src"":""https://test12345.live/images/schematic_sequence/hotel_scheme/hotel_scheme_6.png"",""x"":284,""y"":597,""move_time"":5867},{""src"":""https://test12345.live/images/schematic_sequence/hotel_scheme/hotel_scheme_7.png"",""x"":451,""y"":597,""move_time"":3600},{""src"":""https://test12345.live/images/schematic_sequence/hotel_scheme/hotel_scheme_9.png"",""x"":618,""y"":597,""move_time"":2850},{""src"":""https://test12345.live/images/schematic_sequence/hotel_scheme/hotel_scheme_8.png"",""x"":785,""y"":597,""move_time"":1553},{""src"":""https://test12345.live/images/schematic_sequence/hotel_scheme/hotel_scheme_ten.png"",""x"":953,""y"":597,""move_time"":1882},{""src"":""https://test12345.live/images/schematic_sequence/hotel_scheme/hotel_scheme_8.png"",""x"":618,""y"":597,""move_time"":13698}]","[{""src"":""https://test12345.live/images/schematic_sequence/hotel_scheme/hotel_scheme_1.png"",""x"":284,""y"":430},{""src"":""https://test12345.live/images/schematic_sequence/hotel_scheme/hotel_scheme_6.png"",""x"":284,""y"":597},{""src"":""https://test12345.live/images/schematic_sequence/hotel_scheme/hotel_scheme_2.png"",""x"":451,""y"":430},{""src"":""https://test12345.live/images/schematic_sequence/hotel_scheme/hotel_scheme_7.png"",""x"":451,""y"":597},{""src"":""https://test12345.live/images/schematic_sequence/hotel_scheme/hotel_scheme_3.png"",""x"":618,""y"":430},{""src"":""https://test12345.live/images/schematic_sequence/hotel_scheme/hotel_scheme_8.png"",""x"":618,""y"":597},{""src"":""https://test12345.live/images/schematic_sequence/hotel_scheme/hotel_scheme_4.png"",""x"":785,""y"":430},{""src"":""https://test12345.live/images/schematic_sequence/hotel_scheme/hotel_scheme_9.png"",""x"":785,""y"":597},{""src"":""https://test12345.live/images/schematic_sequence/hotel_scheme/hotel_scheme_5.png"",""x"":953,""y"":430},{""src"":""https://test12345.live/images/schematic_sequence/hotel_scheme/hotel_scheme_ten.png"",""x"":953,""y"":597}]","15",""
"","order","5","206653","0.0-5.0","8A89FC51D4B64D09AB3E6F9D50A92459","conditionC","","50866","[""semantic_sequence/market_semantic/market_semantic_8"",""semantic_sequence/market_semantic/market_semantic_5"",""semantic_sequence/market_semantic/market_semantic_3"",""semantic_sequence/market_semantic/market_semantic_1"",""semantic_sequence/market_semantic/market_semantic_6"",""semantic_sequence/market_semantic/market_semantic_2"",""semantic_sequence/market_semantic/market_semantic_9"",""semantic_sequence/market_semantic/market_semantic_7"",""semantic_sequence/market_semantic/market_semantic_ten"",""semantic_sequence/market_semantic/market_semantic_4""]","[{""src"":""https://test12345.live/images/semantic_sequence/market_semantic/market_semantic_1.png"",""x"":284,""y"":430,""move_time"":21184},{""src"":""https://test12345.live/images/semantic_sequence/market_semantic/market_semantic_2.png"",""x"":451,""y"":430,""move_time"":1717},{""src"":""https://test12345.live/images/semantic_sequence/market_semantic/market_semantic_3.png"",""x"":618,""y"":430,""move_time"":5417},{""src"":""https://test12345.live/images/semantic_sequence/market_semantic/market_semantic_4.png"",""x"":785,""y"":430,""move_time"":1600},{""src"":""https://test12345.live/images/semantic_sequence/market_semantic/market_semantic_5.png"",""x"":953,""y"":430,""move_time"":2753},{""src"":""https://test12345.live/images/semantic_sequence/market_semantic/market_semantic_6.png"",""x"":284,""y"":597,""move_time"":1712},{""src"":""https://test12345.live/images/semantic_sequence/market_semantic/market_semantic_7.png"",""x"":451,""y"":597,""move_time"":1967},{""src"":""https://test12345.live/images/semantic_sequence/market_semantic/market_semantic_8.png"",""x"":618,""y"":597,""move_time"":1735},{""src"":""https://test12345.live/images/semantic_sequence/market_semantic/market_semantic_9.png"",""x"":785,""y"":597,""move_time"":1784},{""src"":""https://test12345.live/images/semantic_sequence/market_semantic/market_semantic_ten.png"",""x"":953,""y"":597,""move_time"":1699}]","[{""src"":""https://test12345.live/images/semantic_sequence/market_semantic/market_semantic_1.png"",""x"":284,""y"":430},{""src"":""https://test12345.live/images/semantic_sequence/market_semantic/market_semantic_6.png"",""x"":284,""y"":597},{""src"":""https://test12345.live/images/semantic_sequence/market_semantic/market_semantic_2.png"",""x"":451,""y"":430},{""src"":""https://test12345.live/images/semantic_sequence/market_semantic/market_semantic_7.png"",""x"":451,""y"":597},{""src"":""https://test12345.live/images/semantic_sequence/market_semantic/market_semantic_3.png"",""x"":618,""y"":430},{""src"":""https://test12345.live/images/semantic_sequence/market_semantic/market_semantic_8.png"",""x"":618,""y"":597},{""src"":""https://test12345.live/images/semantic_sequence/market_semantic/market_semantic_4.png"",""x"":785,""y"":430},{""src"":""https://test12345.live/images/semantic_sequence/market_semantic/market_semantic_9.png"",""x"":785,""y"":597},{""src"":""https://test12345.live/images/semantic_sequence/market_semantic/market_semantic_5.png"",""x"":953,""y"":430},{""src"":""https://test12345.live/images/semantic_sequence/market_semantic/market_semantic_ten.png"",""x"":953,""y"":597}]","10",""
"","order","6","301617","0.0-6.0","8A89FC51D4B64D09AB3E6F9D50A92459","conditionC","","94966","[""causal_sequence/package_causal/package_causal_6"",""causal_sequence/package_causal/package_causal_4"",""causal_sequence/package_causal/package_causal_2"",""causal_sequence/package_causal/package_causal_9"",""causal_sequence/package_causal/package_causal_ten"",""causal_sequence/package_causal/package_causal_8"",""causal_sequence/package_causal/package_causal_1"",""causal_sequence/package_causal/package_causal_7"",""causal_sequence/package_causal/package_causal_5"",""causal_sequence/package_causal/package_causal_3""]","[{""src"":""https://test12345.live/images/causal_sequence/package_causal/package_causal_1.png"",""x"":284,""y"":430,""move_time"":32033},{""src"":""https://test12345.live/images/causal_sequence/package_causal/package_causal_4.png"",""x"":451,""y"":50,""move_time"":3301},{""src"":""https://test12345.live/images/causal_sequence/package_causal/package_causal_3.png"",""x"":451,""y"":430,""move_time"":1533},{""src"":""https://test12345.live/images/causal_sequence/package_causal/package_causal_4.png"",""x"":618,""y"":430,""move_time"":1932},{""src"":""https://test12345.live/images/causal_sequence/package_causal/package_causal_5.png"",""x"":785,""y"":430,""move_time"":3319},{""src"":""https://test12345.live/images/causal_sequence/package_causal/package_causal_6.png"",""x"":284,""y"":50,""move_time"":4233},{""src"":""https://test12345.live/images/causal_sequence/package_causal/package_causal_5.png"",""x"":953,""y"":430,""move_time"":3984},{""src"":""https://test12345.live/images/causal_sequence/package_causal/package_causal_4.png"",""x"":785,""y"":430,""move_time"":1334},{""src"":""https://test12345.live/images/causal_sequence/package_causal/package_causal_3.png"",""x"":618,""y"":430,""move_time"":1350},{""src"":""https://test12345.live/images/causal_sequence/package_causal/package_causal_2.png"",""x"":451,""y"":430,""move_time"":1882},{""src"":""https://test12345.live/images/causal_sequence/package_causal/package_causal_6.png"",""x"":284,""y"":597,""move_time"":2818},{""src"":""https://test12345.live/images/causal_sequence/package_causal/package_causal_7.png"",""x"":451,""y"":597,""move_time"":2867},{""src"":""https://test12345.live/images/causal_sequence/package_causal/package_causal_8.png"",""x"":618,""y"":597,""move_time"":1516},{""src"":""https://test12345.live/images/causal_sequence/package_causal/package_causal_9.png"",""x"":785,""y"":597,""move_time"":2219},{""src"":""https://test12345.live/images/causal_sequence/package_causal/package_causal_ten.png"",""x"":953,""y"":597,""move_time"":1898}]","[{""src"":""https://test12345.live/images/causal_sequence/package_causal/package_causal_1.png"",""x"":284,""y"":430},{""src"":""https://test12345.live/images/causal_sequence/package_causal/package_causal_6.png"",""x"":284,""y"":597},{""src"":""https://test12345.live/images/causal_sequence/package_causal/package_causal_2.png"",""x"":451,""y"":430},{""src"":""https://test12345.live/images/causal_sequence/package_causal/package_causal_7.png"",""x"":451,""y"":597},{""src"":""https://test12345.live/images/causal_sequence/package_causal/package_causal_3.png"",""x"":618,""y"":430},{""src"":""https://test12345.live/images/causal_sequence/package_causal/package_causal_8.png"",""x"":618,""y"":597},{""src"":""https://test12345.live/images/causal_sequence/package_causal/package_causal_4.png"",""x"":785,""y"":430},{""src"":""https://test12345.live/images/causal_sequence/package_causal/package_causal_9.png"",""x"":785,""y"":597},{""src"":""https://test12345.live/images/causal_sequence/package_causal/package_causal_5.png"",""x"":953,""y"":430},{""src"":""https://test12345.live/images/causal_sequence/package_causal/package_causal_ten.png"",""x"":953,""y"":597}]","15",""
"","order","7","348283","0.0-7.0","8A89FC51D4B64D09AB3E6F9D50A92459","conditionC","","46667","[""semantic_sequence/kitchen_operations_semantic/kitchen_operations_semantic_7"",""semantic_sequence/kitchen_operations_semantic/kitchen_operations_semantic_ten"",""semantic_sequence/kitchen_operations_semantic/kitchen_operations_semantic_9"",""semantic_sequence/kitchen_operations_semantic/kitchen_operations_semantic_3"",""semantic_sequence/kitchen_operations_semantic/kitchen_operations_semantic_8"",""semantic_sequence/kitchen_operations_semantic/kitchen_operations_semantic_2"",""semantic_sequence/kitchen_operations_semantic/kitchen_operations_semantic_5"",""semantic_sequence/kitchen_operations_semantic/kitchen_operations_semantic_1"",""semantic_sequence/kitchen_operations_semantic/kitchen_operations_semantic_6"",""semantic_sequence/kitchen_operations_semantic/kitchen_operations_semantic_4""]","[{""src"":""https://test12345.live/images/semantic_sequence/kitchen_operations_semantic/kitchen_operations_semantic_1.png"",""x"":284,""y"":430,""move_time"":6221},{""src"":""https://test12345.live/images/semantic_sequence/kitchen_operations_semantic/kitchen_operations_semantic_2.png"",""x"":451,""y"":430,""move_time"":1814},{""src"":""https://test12345.live/images/semantic_sequence/kitchen_operations_semantic/kitchen_operations_semantic_3.png"",""x"":618,""y"":430,""move_time"":5734},{""src"":""https://test12345.live/images/semantic_sequence/kitchen_operations_semantic/kitchen_operations_semantic_4.png"",""x"":785,""y"":430,""move_time"":4116},{""src"":""https://test12345.live/images/semantic_sequence/kitchen_operations_semantic/kitchen_operations_semantic_5.png"",""x"":953,""y"":430,""move_time"":1667},{""src"":""https://test12345.live/images/semantic_sequence/kitchen_operations_semantic/kitchen_operations_semantic_6.png"",""x"":284,""y"":597,""move_time"":2116},{""src"":""https://test12345.live/images/semantic_sequence/kitchen_operations_semantic/kitchen_operations_semantic_7.png"",""x"":451,""y"":597,""move_time"":2316},{""src"":""https://test12345.live/images/semantic_sequence/kitchen_operations_semantic/kitchen_operations_semantic_8.png"",""x"":618,""y"":597,""move_time"":1701},{""src"":""https://test12345.live/images/semantic_sequence/kitchen_operations_semantic/kitchen_operations_semantic_9.png"",""x"":785,""y"":597,""move_time"":1582},{""src"":""https://test12345.live/images/semantic_sequence/kitchen_operations_semantic/kitchen_operations_semantic_ten.png"",""x"":953,""y"":597,""move_time"":3825}]","[{""src"":""https://test12345.live/images/semantic_sequence/kitchen_operations_semantic/kitchen_operations_semantic_1.png"",""x"":284,""y"":430},{""src"":""https://test12345.live/images/semantic_sequence/kitchen_operations_semantic/kitchen_operations_semantic_6.png"",""x"":284,""y"":597},{""src"":""https://test12345.live/images/semantic_sequence/kitchen_operations_semantic/kitchen_operations_semantic_2.png"",""x"":451,""y"":430},{""src"":""https://test12345.live/images/semantic_sequence/kitchen_operations_semantic/kitchen_operations_semantic_7.png"",""x"":451,""y"":597},{""src"":""https://test12345.live/images/semantic_sequence/kitchen_operations_semantic/kitchen_operations_semantic_3.png"",""x"":618,""y"":430},{""src"":""https://test12345.live/images/semantic_sequence/kitchen_operations_semantic/kitchen_operations_semantic_8.png"",""x"":618,""y"":597},{""src"":""https://test12345.live/images/semantic_sequence/kitchen_operations_semantic/kitchen_operations_semantic_4.png"",""x"":785,""y"":430},{""src"":""https://test12345.live/images/semantic_sequence/kitchen_operations_semantic/kitchen_operations_semantic_9.png"",""x"":785,""y"":597},{""src"":""https://test12345.live/images/semantic_sequence/kitchen_operations_semantic/kitchen_operations_semantic_5.png"",""x"":953,""y"":430},{""src"":""https://test12345.live/images/semantic_sequence/kitchen_operations_semantic/kitchen_operations_semantic_ten.png"",""x"":953,""y"":597}]","10",""
"","order","8","421448","0.0-8.0","8A89FC51D4B64D09AB3E6F9D50A92459","conditionC","","73166","[""causal_sequence/the_performance_causal/the_performance_causal_1"",""causal_sequence/the_performance_causal/the_performance_causal_ten"",""causal_sequence/the_performance_causal/the_performance_causal_8"",""causal_sequence/the_performance_causal/the_performance_causal_6"",""causal_sequence/the_performance_causal/the_performance_causal_5"",""causal_sequence/the_performance_causal/the_performance_causal_3"",""causal_sequence/the_performance_causal/the_performance_causal_7"",""causal_sequence/the_performance_causal/the_performance_causal_9"",""causal_sequence/the_performance_causal/the_performance_causal_2"",""causal_sequence/the_performance_causal/the_performance_causal_4""]","[{""src"":""https://test12345.live/images/causal_sequence/the_performance_causal/the_performance_causal_1.png"",""x"":284,""y"":430,""move_time"":16418},{""src"":""https://test12345.live/images/causal_sequence/the_performance_causal/the_performance_causal_2.png"",""x"":451,""y"":430,""move_time"":3248},{""src"":""https://test12345.live/images/causal_sequence/the_performance_causal/the_performance_causal_3.png"",""x"":618,""y"":430,""move_time"":2935},{""src"":""https://test12345.live/images/causal_sequence/the_performance_causal/the_performance_causal_3.png"",""x"":618,""y"":430,""move_time"":4984},{""src"":""https://test12345.live/images/causal_sequence/the_performance_causal/the_performance_causal_4.png"",""x"":785,""y"":430,""move_time"":2900},{""src"":""https://test12345.live/images/causal_sequence/the_performance_causal/the_performance_causal_6.png"",""x"":953,""y"":430,""move_time"":2749},{""src"":""https://test12345.live/images/causal_sequence/the_performance_causal/the_performance_causal_5.png"",""x"":284,""y"":597,""move_time"":4817},{""src"":""https://test12345.live/images/causal_sequence/the_performance_causal/the_performance_causal_7.png"",""x"":451,""y"":597,""move_time"":3468},{""src"":""https://test12345.live/images/causal_sequence/the_performance_causal/the_performance_causal_8.png"",""x"":618,""y"":597,""move_time"":2516},{""src"":""https://test12345.live/images/causal_sequence/the_performance_causal/the_performance_causal_9.png"",""x"":785,""y"":597,""move_time"":2683},{""src"":""https://test12345.live/images/causal_sequence/the_performance_causal/the_performance_causal_ten.png"",""x"":953,""y"":597,""move_time"":2333},{""src"":""https://test12345.live/images/causal_sequence/the_performance_causal/the_performance_causal_5.png"",""x"":953,""y"":430,""move_time"":10068}]","[{""src"":""https://test12345.live/images/causal_sequence/the_performance_causal/the_performance_causal_1.png"",""x"":284,""y"":430},{""src"":""https://test12345.live/images/causal_sequence/the_performance_causal/the_performance_causal_6.png"",""x"":284,""y"":597},{""src"":""https://test12345.live/images/causal_sequence/the_performance_causal/the_performance_causal_2.png"",""x"":451,""y"":430},{""src"":""https://test12345.live/images/causal_sequence/the_performance_causal/the_performance_causal_7.png"",""x"":451,""y"":597},{""src"":""https://test12345.live/images/causal_sequence/the_performance_causal/the_performance_causal_3.png"",""x"":618,""y"":430},{""src"":""https://test12345.live/images/causal_sequence/the_performance_causal/the_performance_causal_8.png"",""x"":618,""y"":597},{""src"":""https://test12345.live/images/causal_sequence/the_performance_causal/the_performance_causal_4.png"",""x"":785,""y"":430},{""src"":""https://test12345.live/images/causal_sequence/the_performance_causal/the_performance_causal_9.png"",""x"":785,""y"":597},{""src"":""https://test12345.live/images/causal_sequence/the_performance_causal/the_performance_causal_5.png"",""x"":953,""y"":430},{""src"":""https://test12345.live/images/causal_sequence/the_performance_causal/the_performance_causal_ten.png"",""x"":953,""y"":597}]","12",""
"","order","9","488197","0.0-9.0","8A89FC51D4B64D09AB3E6F9D50A92459","conditionC","","66750","[""causal_sequence/dog_causal/dog_causal_6"",""causal_sequence/dog_causal/dog_causal_ten"",""causal_sequence/dog_causal/dog_causal_4"",""causal_sequence/dog_causal/dog_causal_1"",""causal_sequence/dog_causal/dog_causal_5"",""causal_sequence/dog_causal/dog_causal_9"",""causal_sequence/dog_causal/dog_causal_3"",""causal_sequence/dog_causal/dog_causal_8"",""causal_sequence/dog_causal/dog_causal_7"",""causal_sequence/dog_causal/dog_causal_2""]","[{""src"":""https://test12345.live/images/causal_sequence/dog_causal/dog_causal_4.png"",""x"":284,""y"":430,""move_time"":13805},{""src"":""https://test12345.live/images/causal_sequence/dog_causal/dog_causal_4.png"",""x"":451,""y"":430,""move_time"":3514},{""src"":""https://test12345.live/images/causal_sequence/dog_causal/dog_causal_1.png"",""x"":284,""y"":430,""move_time"":4134},{""src"":""https://test12345.live/images/causal_sequence/dog_causal/dog_causal_2.png"",""x"":451,""y"":430,""move_time"":1716},{""src"":""https://test12345.live/images/causal_sequence/dog_causal/dog_causal_3.png"",""x"":618,""y"":430,""move_time"":3866},{""src"":""https://test12345.live/images/causal_sequence/dog_causal/dog_causal_4.png"",""x"":785,""y"":430,""move_time"":7734},{""src"":""https://test12345.live/images/causal_sequence/dog_causal/dog_causal_5.png"",""x"":953,""y"":430,""move_time"":3482},{""src"":""https://test12345.live/images/causal_sequence/dog_causal/dog_causal_6.png"",""x"":284,""y"":597,""move_time"":3668},{""src"":""https://test12345.live/images/causal_sequence/dog_causal/dog_causal_7.png"",""x"":451,""y"":597,""move_time"":2150},{""src"":""https://test12345.live/images/causal_sequence/dog_causal/dog_causal_8.png"",""x"":618,""y"":597,""move_time"":1985},{""src"":""https://test12345.live/images/causal_sequence/dog_causal/dog_causal_9.png"",""x"":785,""y"":597,""move_time"":2531},{""src"":""https://test12345.live/images/causal_sequence/dog_causal/dog_causal_ten.png"",""x"":953,""y"":597,""move_time"":2051}]","[{""src"":""https://test12345.live/images/causal_sequence/dog_causal/dog_causal_1.png"",""x"":284,""y"":430},{""src"":""https://test12345.live/images/causal_sequence/dog_causal/dog_causal_6.png"",""x"":284,""y"":597},{""src"":""https://test12345.live/images/causal_sequence/dog_causal/dog_causal_2.png"",""x"":451,""y"":430},{""src"":""https://test12345.live/images/causal_sequence/dog_causal/dog_causal_7.png"",""x"":451,""y"":597},{""src"":""https://test12345.live/images/causal_sequence/dog_causal/dog_causal_3.png"",""x"":618,""y"":430},{""src"":""https://test12345.live/images/causal_sequence/dog_causal/dog_causal_8.png"",""x"":618,""y"":597},{""src"":""https://test12345.live/images/causal_sequence/dog_causal/dog_causal_4.png"",""x"":785,""y"":430},{""src"":""https://test12345.live/images/causal_sequence/dog_causal/dog_causal_9.png"",""x"":785,""y"":597},{""src"":""https://test12345.live/images/causal_sequence/dog_causal/dog_causal_5.png"",""x"":953,""y"":430},{""src"":""https://test12345.live/images/causal_sequence/dog_causal/dog_causal_ten.png"",""x"":953,""y"":597}]","12",""
"","order","10","525562","0.0-10.0","8A89FC51D4B64D09AB3E6F9D50A92459","conditionC","","37366","[""semantic_sequence/creative_activities_semantic/creative_activities_semantic_8"",""semantic_sequence/creative_activities_semantic/creative_activities_semantic_6"",""semantic_sequence/creative_activities_semantic/creative_activities_semantic_9"",""semantic_sequence/creative_activities_semantic/creative_activities_semantic_2"",""semantic_sequence/creative_activities_semantic/creative_activities_semantic_ten"",""semantic_sequence/creative_activities_semantic/creative_activities_semantic_4"",""semantic_sequence/creative_activities_semantic/creative_activities_semantic_1"",""semantic_sequence/creative_activities_semantic/creative_activities_semantic_3"",""semantic_sequence/creative_activities_semantic/creative_activities_semantic_7"",""semantic_sequence/creative_activities_semantic/creative_activities_semantic_5""]","[{""src"":""https://test12345.live/images/semantic_sequence/creative_activities_semantic/creative_activities_semantic_1.png"",""x"":284,""y"":430,""move_time"":4901},{""src"":""https://test12345.live/images/semantic_sequence/creative_activities_semantic/creative_activities_semantic_2.png"",""x"":451,""y"":430,""move_time"":3534},{""src"":""https://test12345.live/images/semantic_sequence/creative_activities_semantic/creative_activities_semantic_3.png"",""x"":618,""y"":430,""move_time"":4633},{""src"":""https://test12345.live/images/semantic_sequence/creative_activities_semantic/creative_activities_semantic_4.png"",""x"":785,""y"":430,""move_time"":1600},{""src"":""https://test12345.live/images/semantic_sequence/creative_activities_semantic/creative_activities_semantic_5.png"",""x"":953,""y"":430,""move_time"":4116},{""src"":""https://test12345.live/images/semantic_sequence/creative_activities_semantic/creative_activities_semantic_6.png"",""x"":284,""y"":597,""move_time"":2118},{""src"":""https://test12345.live/images/semantic_sequence/creative_activities_semantic/creative_activities_semantic_7.png"",""x"":451,""y"":597,""move_time"":1533},{""src"":""https://test12345.live/images/semantic_sequence/creative_activities_semantic/creative_activities_semantic_8.png"",""x"":618,""y"":597,""move_time"":2449},{""src"":""https://test12345.live/images/semantic_sequence/creative_activities_semantic/creative_activities_semantic_9.png"",""x"":785,""y"":597,""move_time"":3009},{""src"":""https://test12345.live/images/semantic_sequence/creative_activities_semantic/creative_activities_semantic_ten.png"",""x"":953,""y"":597,""move_time"":2108}]","[{""src"":""https://test12345.live/images/semantic_sequence/creative_activities_semantic/creative_activities_semantic_1.png"",""x"":284,""y"":430},{""src"":""https://test12345.live/images/semantic_sequence/creative_activities_semantic/creative_activities_semantic_6.png"",""x"":284,""y"":597},{""src"":""https://test12345.live/images/semantic_sequence/creative_activities_semantic/creative_activities_semantic_2.png"",""x"":451,""y"":430},{""src"":""https://test12345.live/images/semantic_sequence/creative_activities_semantic/creative_activities_semantic_7.png"",""x"":451,""y"":597},{""src"":""https://test12345.live/images/semantic_sequence/creative_activities_semantic/creative_activities_semantic_3.png"",""x"":618,""y"":430},{""src"":""https://test12345.live/images/semantic_sequence/creative_activities_semantic/creative_activities_semantic_8.png"",""x"":618,""y"":597},{""src"":""https://test12345.live/images/semantic_sequence/creative_activities_semantic/creative_activities_semantic_4.png"",""x"":785,""y"":430},{""src"":""https://test12345.live/images/semantic_sequence/creative_activities_semantic/creative_activities_semantic_9.png"",""x"":785,""y"":597},{""src"":""https://test12345.live/images/semantic_sequence/creative_activities_semantic/creative_activities_semantic_5.png"",""x"":953,""y"":430},{""src"":""https://test12345.live/images/semantic_sequence/creative_activities_semantic/creative_activities_semantic_ten.png"",""x"":953,""y"":597}]","10",""
"","order","11","582828","0.0-11.0","8A89FC51D4B64D09AB3E6F9D50A92459","conditionC","","57267","[""schematic_sequence/interview_scheme/interview_scheme_5"",""schematic_sequence/interview_scheme/interview_scheme_4"",""schematic_sequence/interview_scheme/interview_scheme_8"",""schematic_sequence/interview_scheme/interview_scheme_9"",""schematic_sequence/interview_scheme/interview_scheme_7"",""schematic_sequence/interview_scheme/interview_scheme_6"",""schematic_sequence/interview_scheme/interview_scheme_ten"",""schematic_sequence/interview_scheme/interview_scheme_2"",""schematic_sequence/interview_scheme/interview_scheme_3"",""schematic_sequence/interview_scheme/interview_scheme_1""]","[{""src"":""https://test12345.live/images/schematic_sequence/interview_scheme/interview_scheme_1.png"",""x"":284,""y"":430,""move_time"":13036},{""src"":""https://test12345.live/images/schematic_sequence/interview_scheme/interview_scheme_2.png"",""x"":451,""y"":430,""move_time"":2430},{""src"":""https://test12345.live/images/schematic_sequence/interview_scheme/interview_scheme_3.png"",""x"":618,""y"":430,""move_time"":2166},{""src"":""https://test12345.live/images/schematic_sequence/interview_scheme/interview_scheme_4.png"",""x"":785,""y"":430,""move_time"":4634},{""src"":""https://test12345.live/images/schematic_sequence/interview_scheme/interview_scheme_5.png"",""x"":953,""y"":430,""move_time"":8102},{""src"":""https://test12345.live/images/schematic_sequence/interview_scheme/interview_scheme_7.png"",""x"":451,""y"":597,""move_time"":4832},{""src"":""https://test12345.live/images/schematic_sequence/interview_scheme/interview_scheme_6.png"",""x"":284,""y"":597,""move_time"":2283},{""src"":""https://test12345.live/images/schematic_sequence/interview_scheme/interview_scheme_8.png"",""x"":618,""y"":597,""move_time"":2753},{""src"":""https://test12345.live/images/schematic_sequence/interview_scheme/interview_scheme_9.png"",""x"":785,""y"":597,""move_time"":2148},{""src"":""https://test12345.live/images/schematic_sequence/interview_scheme/interview_scheme_ten.png"",""x"":953,""y"":597,""move_time"":1550}]","[{""src"":""https://test12345.live/images/schematic_sequence/interview_scheme/interview_scheme_1.png"",""x"":284,""y"":430},{""src"":""https://test12345.live/images/schematic_sequence/interview_scheme/interview_scheme_6.png"",""x"":284,""y"":597},{""src"":""https://test12345.live/images/schematic_sequence/interview_scheme/interview_scheme_2.png"",""x"":451,""y"":430},{""src"":""https://test12345.live/images/schematic_sequence/interview_scheme/interview_scheme_7.png"",""x"":451,""y"":597},{""src"":""https://test12345.live/images/schematic_sequence/interview_scheme/interview_scheme_3.png"",""x"":618,""y"":430},{""src"":""https://test12345.live/images/schematic_sequence/interview_scheme/interview_scheme_8.png"",""x"":618,""y"":597},{""src"":""https://test12345.live/images/schematic_sequence/interview_scheme/interview_scheme_4.png"",""x"":785,""y"":430},{""src"":""https://test12345.live/images/schematic_sequence/interview_scheme/interview_scheme_9.png"",""x"":785,""y"":597},{""src"":""https://test12345.live/images/schematic_sequence/interview_scheme/interview_scheme_5.png"",""x"":953,""y"":430},{""src"":""https://test12345.live/images/schematic_sequence/interview_scheme/interview_scheme_ten.png"",""x"":953,""y"":597}]","10",""
"","order","12","650260","0.0-12.0","8A89FC51D4B64D09AB3E6F9D50A92459","conditionC","","67433","[""schematic_sequence/flight_scheme/flight_scheme_6"",""schematic_sequence/flight_scheme/flight_scheme_8"",""schematic_sequence/flight_scheme/flight_scheme_ten"",""schematic_sequence/flight_scheme/flight_scheme_9"",""schematic_sequence/flight_scheme/flight_scheme_5"",""schematic_sequence/flight_scheme/flight_scheme_2"",""schematic_sequence/flight_scheme/flight_scheme_1"",""schematic_sequence/flight_scheme/flight_scheme_7"",""schematic_sequence/flight_scheme/flight_scheme_4"",""schematic_sequence/flight_scheme/flight_scheme_3""]","[{""src"":""https://test12345.live/images/schematic_sequence/flight_scheme/flight_scheme_6.png"",""x"":618,""y"":430,""move_time"":12266},{""src"":""https://test12345.live/images/schematic_sequence/flight_scheme/flight_scheme_1.png"",""x"":284,""y"":430,""move_time"":3500},{""src"":""https://test12345.live/images/schematic_sequence/flight_scheme/flight_scheme_2.png"",""x"":451,""y"":430,""move_time"":1965},{""src"":""https://test12345.live/images/schematic_sequence/flight_scheme/flight_scheme_6.png"",""x"":785,""y"":430,""move_time"":1350},{""src"":""https://test12345.live/images/schematic_sequence/flight_scheme/flight_scheme_4.png"",""x"":618,""y"":430,""move_time"":2768},{""src"":""https://test12345.live/images/schematic_sequence/flight_scheme/flight_scheme_6.png"",""x"":953,""y"":430,""move_time"":3950},{""src"":""https://test12345.live/images/schematic_sequence/flight_scheme/flight_scheme_3.png"",""x"":785,""y"":430,""move_time"":2651},{""src"":""https://test12345.live/images/schematic_sequence/flight_scheme/flight_scheme_6.png"",""x"":785,""y"":217,""move_time"":1983},{""src"":""https://test12345.live/images/schematic_sequence/flight_scheme/flight_scheme_5.png"",""x"":284,""y"":597,""move_time"":4617},{""src"":""https://test12345.live/images/schematic_sequence/flight_scheme/flight_scheme_6.png"",""x"":785,""y"":217,""move_time"":3399},{""src"":""https://test12345.live/images/schematic_sequence/flight_scheme/flight_scheme_5.png"",""x"":953,""y"":430,""move_time"":1635},{""src"":""https://test12345.live/images/schematic_sequence/flight_scheme/flight_scheme_6.png"",""x"":284,""y"":597,""move_time"":4016},{""src"":""https://test12345.live/images/schematic_sequence/flight_scheme/flight_scheme_7.png"",""x"":451,""y"":597,""move_time"":2901},{""src"":""https://test12345.live/images/schematic_sequence/flight_scheme/flight_scheme_8.png"",""x"":618,""y"":597,""move_time"":2533},{""src"":""https://test12345.live/images/schematic_sequence/flight_scheme/flight_scheme_9.png"",""x"":785,""y"":597,""move_time"":1418},{""src"":""https://test12345.live/images/schematic_sequence/flight_scheme/flight_scheme_ten.png"",""x"":953,""y"":597,""move_time"":1583}]","[{""src"":""https://test12345.live/images/schematic_sequence/flight_scheme/flight_scheme_1.png"",""x"":284,""y"":430},{""src"":""https://test12345.live/images/schematic_sequence/flight_scheme/flight_scheme_6.png"",""x"":284,""y"":597},{""src"":""https://test12345.live/images/schematic_sequence/flight_scheme/flight_scheme_2.png"",""x"":451,""y"":430},{""src"":""https://test12345.live/images/schematic_sequence/flight_scheme/flight_scheme_7.png"",""x"":451,""y"":597},{""src"":""https://test12345.live/images/schematic_sequence/flight_scheme/flight_scheme_4.png"",""x"":618,""y"":430},{""src"":""https://test12345.live/images/schematic_sequence/flight_scheme/flight_scheme_8.png"",""x"":618,""y"":597},{""src"":""https://test12345.live/images/schematic_sequence/flight_scheme/flight_scheme_3.png"",""x"":785,""y"":430},{""src"":""https://test12345.live/images/schematic_sequence/flight_scheme/flight_scheme_9.png"",""x"":785,""y"":597},{""src"":""https://test12345.live/images/schematic_sequence/flight_scheme/flight_scheme_5.png"",""x"":953,""y"":430},{""src"":""https://test12345.live/images/schematic_sequence/flight_scheme/flight_scheme_ten.png"",""x"":953,""y"":597}]","16",""
"","order","13","751657","0.0-13.0","8A89FC51D4B64D09AB3E6F9D50A92459","conditionC","","101399","[""semantic_sequence/housework_semantic/housework_semantic_6"",""semantic_sequence/housework_semantic/housework_semantic_2"",""semantic_sequence/housework_semantic/housework_semantic_1"",""semantic_sequence/housework_semantic/housework_semantic_8"",""semantic_sequence/housework_semantic/housework_semantic_5"",""semantic_sequence/housework_semantic/housework_semantic_3"",""semantic_sequence/housework_semantic/housework_semantic_4"",""semantic_sequence/housework_semantic/housework_semantic_ten"",""semantic_sequence/housework_semantic/housework_semantic_7"",""semantic_sequence/housework_semantic/housework_semantic_9""]","[{""src"":""https://test12345.live/images/semantic_sequence/housework_semantic/housework_semantic_1.png"",""x"":284,""y"":430,""move_time"":33366},{""src"":""https://test12345.live/images/semantic_sequence/housework_semantic/housework_semantic_2.png"",""x"":451,""y"":430,""move_time"":1668},{""src"":""https://test12345.live/images/semantic_sequence/housework_semantic/housework_semantic_3.png"",""x"":618,""y"":430,""move_time"":17283},{""src"":""https://test12345.live/images/semantic_sequence/housework_semantic/housework_semantic_5.png"",""x"":785,""y"":430,""move_time"":5021},{""src"":""https://test12345.live/images/semantic_sequence/housework_semantic/housework_semantic_6.png"",""x"":953,""y"":430,""move_time"":4163},{""src"":""https://test12345.live/images/semantic_sequence/housework_semantic/housework_semantic_4.png"",""x"":284,""y"":597,""move_time"":2938},{""src"":""https://test12345.live/images/semantic_sequence/housework_semantic/housework_semantic_4.png"",""x"":451,""y"":597,""move_time"":12179},{""src"":""https://test12345.live/images/semantic_sequence/housework_semantic/housework_semantic_7.png"",""x"":284,""y"":597,""move_time"":2850},{""src"":""https://test12345.live/images/semantic_sequence/housework_semantic/housework_semantic_8.png"",""x"":618,""y"":597,""move_time"":2020},{""src"":""https://test12345.live/images/semantic_sequence/housework_semantic/housework_semantic_9.png"",""x"":785,""y"":597,""move_time"":1646},{""src"":""https://test12345.live/images/semantic_sequence/housework_semantic/housework_semantic_ten.png"",""x"":618,""y"":217,""move_time"":1753},{""src"":""https://test12345.live/images/semantic_sequence/housework_semantic/housework_semantic_ten.png"",""x"":953,""y"":597,""move_time"":8832}]","[{""src"":""https://test12345.live/images/semantic_sequence/housework_semantic/housework_semantic_1.png"",""x"":284,""y"":430},{""src"":""https://test12345.live/images/semantic_sequence/housework_semantic/housework_semantic_7.png"",""x"":284,""y"":597},{""src"":""https://test12345.live/images/semantic_sequence/housework_semantic/housework_semantic_2.png"",""x"":451,""y"":430},{""src"":""https://test12345.live/images/semantic_sequence/housework_semantic/housework_semantic_4.png"",""x"":451,""y"":597},{""src"":""https://test12345.live/images/semantic_sequence/housework_semantic/housework_semantic_3.png"",""x"":618,""y"":430},{""src"":""https://test12345.live/images/semantic_sequence/housework_semantic/housework_semantic_8.png"",""x"":618,""y"":597},{""src"":""https://test12345.live/images/semantic_sequence/housework_semantic/housework_semantic_5.png"",""x"":785,""y"":430},{""src"":""https://test12345.live/images/semantic_sequence/housework_semantic/housework_semantic_9.png"",""x"":785,""y"":597},{""src"":""https://test12345.live/images/semantic_sequence/housework_semantic/housework_semantic_6.png"",""x"":953,""y"":430},{""src"":""https://test12345.live/images/semantic_sequence/housework_semantic/housework_semantic_ten.png"",""x"":953,""y"":597}]","12",""
"","order","14","798955","0.0-14.0","8A89FC51D4B64D09AB3E6F9D50A92459","conditionC","","47299","[""schematic_sequence/supermarket_scheme/supermarket_scheme_ten"",""schematic_sequence/supermarket_scheme/supermarket_scheme_8"",""schematic_sequence/supermarket_scheme/supermarket_scheme_4"",""schematic_sequence/supermarket_scheme/supermarket_scheme_1"",""schematic_sequence/supermarket_scheme/supermarket_scheme_9"",""schematic_sequence/supermarket_scheme/supermarket_scheme_6"",""schematic_sequence/supermarket_scheme/supermarket_scheme_5"",""schematic_sequence/supermarket_scheme/supermarket_scheme_7"",""schematic_sequence/supermarket_scheme/supermarket_scheme_3"",""schematic_sequence/supermarket_scheme/supermarket_scheme_2""]","[{""src"":""https://test12345.live/images/schematic_sequence/supermarket_scheme/supermarket_scheme_3.png"",""x"":451,""y"":430,""move_time"":9768},{""src"":""https://test12345.live/images/schematic_sequence/supermarket_scheme/supermarket_scheme_1.png"",""x"":284,""y"":430,""move_time"":1949},{""src"":""https://test12345.live/images/schematic_sequence/supermarket_scheme/supermarket_scheme_2.png"",""x"":618,""y"":430,""move_time"":5283},{""src"":""https://test12345.live/images/schematic_sequence/supermarket_scheme/supermarket_scheme_5.png"",""x"":953,""y"":430,""move_time"":6267},{""src"":""https://test12345.live/images/schematic_sequence/supermarket_scheme/supermarket_scheme_4.png"",""x"":785,""y"":430,""move_time"":1799},{""src"":""https://test12345.live/images/schematic_sequence/supermarket_scheme/supermarket_scheme_6.png"",""x"":284,""y"":597,""move_time"":3302},{""src"":""https://test12345.live/images/schematic_sequence/supermarket_scheme/supermarket_scheme_8.png"",""x"":451,""y"":597,""move_time"":2147},{""src"":""https://test12345.live/images/schematic_sequence/supermarket_scheme/supermarket_scheme_7.png"",""x"":618,""y"":597,""move_time"":1785},{""src"":""https://test12345.live/images/schematic_sequence/supermarket_scheme/supermarket_scheme_9.png"",""x"":785,""y"":597,""move_time"":1702},{""src"":""https://test12345.live/images/schematic_sequence/supermarket_scheme/supermarket_scheme_ten.png"",""x"":953,""y"":597,""move_time"":1982}]","[{""src"":""https://test12345.live/images/schematic_sequence/supermarket_scheme/supermarket_scheme_1.png"",""x"":284,""y"":430},{""src"":""https://test12345.live/images/schematic_sequence/supermarket_scheme/supermarket_scheme_6.png"",""x"":284,""y"":597},{""src"":""https://test12345.live/images/schematic_sequence/supermarket_scheme/supermarket_scheme_3.png"",""x"":451,""y"":430},{""src"":""https://test12345.live/images/schematic_sequence/supermarket_scheme/supermarket_scheme_8.png"",""x"":451,""y"":597},{""src"":""https://test12345.live/images/schematic_sequence/supermarket_scheme/supermarket_scheme_2.png"",""x"":618,""y"":430},{""src"":""https://test12345.live/images/schematic_sequence/supermarket_scheme/supermarket_scheme_7.png"",""x"":618,""y"":597},{""src"":""https://test12345.live/images/schematic_sequence/supermarket_scheme/supermarket_scheme_4.png"",""x"":785,""y"":430},{""src"":""https://test12345.live/images/schematic_sequence/supermarket_scheme/supermarket_scheme_9.png"",""x"":785,""y"":597},{""src"":""https://test12345.live/images/schematic_sequence/supermarket_scheme/supermarket_scheme_5.png"",""x"":953,""y"":430},{""src"":""https://test12345.live/images/schematic_sequence/supermarket_scheme/supermarket_scheme_ten.png"",""x"":953,""y"":597}]","10",""
"","order","15","930603","0.0-15.0","8A89FC51D4B64D09AB3E6F9D50A92459","conditionC","","131651","[""causal_sequence/coin_causal/coin_causal_5"",""causal_sequence/coin_causal/coin_causal_3"",""causal_sequence/coin_causal/coin_causal_4"",""causal_sequence/coin_causal/coin_causal_6"",""causal_sequence/coin_causal/coin_causal_9"",""causal_sequence/coin_causal/coin_causal_2"",""causal_sequence/coin_causal/coin_causal_8"",""causal_sequence/coin_causal/coin_causal_ten"",""causal_sequence/coin_causal/coin_causal_7"",""causal_sequence/coin_causal/coin_causal_1""]","[{""src"":""https://test12345.live/images/causal_sequence/coin_causal/coin_causal_3.png"",""x"":451,""y"":430,""move_time"":50702},{""src"":""https://test12345.live/images/causal_sequence/coin_causal/coin_causal_3.png"",""x"":618,""y"":430,""move_time"":10634},{""src"":""https://test12345.live/images/causal_sequence/coin_causal/coin_causal_2.png"",""x"":284,""y"":430,""move_time"":3999},{""src"":""https://test12345.live/images/causal_sequence/coin_causal/coin_causal_1.png"",""x"":451,""y"":430,""move_time"":3832},{""src"":""https://test12345.live/images/causal_sequence/coin_causal/coin_causal_4.png"",""x"":785,""y"":430,""move_time"":5918},{""src"":""https://test12345.live/images/causal_sequence/coin_causal/coin_causal_5.png"",""x"":953,""y"":430,""move_time"":2685},{""src"":""https://test12345.live/images/causal_sequence/coin_causal/coin_causal_9.png"",""x"":284,""y"":597,""move_time"":3899},{""src"":""https://test12345.live/images/causal_sequence/coin_causal/coin_causal_ten.png"",""x"":618,""y"":217,""move_time"":2365},{""src"":""https://test12345.live/images/causal_sequence/coin_causal/coin_causal_7.png"",""x"":451,""y"":597,""move_time"":5998},{""src"":""https://test12345.live/images/causal_sequence/coin_causal/coin_causal_7.png"",""x"":618,""y"":597,""move_time"":11634},{""src"":""https://test12345.live/images/causal_sequence/coin_causal/coin_causal_6.png"",""x"":451,""y"":597,""move_time"":3517},{""src"":""https://test12345.live/images/causal_sequence/coin_causal/coin_causal_9.png"",""x"":785,""y"":597,""move_time"":1566},{""src"":""https://test12345.live/images/causal_sequence/coin_causal/coin_causal_7.png"",""x"":284,""y"":597,""move_time"":1568},{""src"":""https://test12345.live/images/causal_sequence/coin_causal/coin_causal_9.png"",""x"":785,""y"":597,""move_time"":2800},{""src"":""https://test12345.live/images/causal_sequence/coin_causal/coin_causal_6.png"",""x"":284,""y"":597,""move_time"":1517},{""src"":""https://test12345.live/images/causal_sequence/coin_causal/coin_causal_9.png"",""x"":618,""y"":597,""move_time"":1816},{""src"":""https://test12345.live/images/causal_sequence/coin_causal/coin_causal_8.png"",""x"":785,""y"":597,""move_time"":2218},{""src"":""https://test12345.live/images/causal_sequence/coin_causal/coin_causal_ten.png"",""x"":953,""y"":597,""move_time"":1883}]","[{""src"":""https://test12345.live/images/causal_sequence/coin_causal/coin_causal_2.png"",""x"":284,""y"":430},{""src"":""https://test12345.live/images/causal_sequence/coin_causal/coin_causal_6.png"",""x"":284,""y"":597},{""src"":""https://test12345.live/images/causal_sequence/coin_causal/coin_causal_1.png"",""x"":451,""y"":430},{""src"":""https://test12345.live/images/causal_sequence/coin_causal/coin_causal_7.png"",""x"":451,""y"":597},{""src"":""https://test12345.live/images/causal_sequence/coin_causal/coin_causal_3.png"",""x"":618,""y"":430},{""src"":""https://test12345.live/images/causal_sequence/coin_causal/coin_causal_9.png"",""x"":618,""y"":597},{""src"":""https://test12345.live/images/causal_sequence/coin_causal/coin_causal_4.png"",""x"":785,""y"":430},{""src"":""https://test12345.live/images/causal_sequence/coin_causal/coin_causal_8.png"",""x"":785,""y"":597},{""src"":""https://test12345.live/images/causal_sequence/coin_causal/coin_causal_5.png"",""x"":953,""y"":430},{""src"":""https://test12345.live/images/causal_sequence/coin_causal/coin_causal_ten.png"",""x"":953,""y"":597}]","18",""
"","order","16","968134","0.0-16.0","8A89FC51D4B64D09AB3E6F9D50A92459","conditionC","","37531","[""semantic_sequence/traveling_semantic/traveling_semantic_3"",""semantic_sequence/traveling_semantic/traveling_semantic_4"",""semantic_sequence/traveling_semantic/traveling_semantic_5"",""semantic_sequence/traveling_semantic/traveling_semantic_6"",""semantic_sequence/traveling_semantic/traveling_semantic_ten"",""semantic_sequence/traveling_semantic/traveling_semantic_1"",""semantic_sequence/traveling_semantic/traveling_semantic_8"",""semantic_sequence/traveling_semantic/traveling_semantic_9"",""semantic_sequence/traveling_semantic/traveling_semantic_7"",""semantic_sequence/traveling_semantic/traveling_semantic_2""]","[{""src"":""https://test12345.live/images/semantic_sequence/traveling_semantic/traveling_semantic_1.png"",""x"":284,""y"":430,""move_time"":15117},{""src"":""https://test12345.live/images/semantic_sequence/traveling_semantic/traveling_semantic_2.png"",""x"":451,""y"":430,""move_time"":2399},{""src"":""https://test12345.live/images/semantic_sequence/traveling_semantic/traveling_semantic_3.png"",""x"":618,""y"":430,""move_time"":3433},{""src"":""https://test12345.live/images/semantic_sequence/traveling_semantic/traveling_semantic_4.png"",""x"":785,""y"":430,""move_time"":1869},{""src"":""https://test12345.live/images/semantic_sequence/traveling_semantic/traveling_semantic_5.png"",""x"":953,""y"":430,""move_time"":2117},{""src"":""https://test12345.live/images/semantic_sequence/traveling_semantic/traveling_semantic_6.png"",""x"":284,""y"":597,""move_time"":1819},{""src"":""https://test12345.live/images/semantic_sequence/traveling_semantic/traveling_semantic_7.png"",""x"":451,""y"":597,""move_time"":2479},{""src"":""https://test12345.live/images/semantic_sequence/traveling_semantic/traveling_semantic_8.png"",""x"":618,""y"":597,""move_time"":3617},{""src"":""https://test12345.live/images/semantic_sequence/traveling_semantic/traveling_semantic_9.png"",""x"":785,""y"":597,""move_time"":1550},{""src"":""https://test12345.live/images/semantic_sequence/traveling_semantic/traveling_semantic_ten.png"",""x"":953,""y"":597,""move_time"":1585}]","[{""src"":""https://test12345.live/images/semantic_sequence/traveling_semantic/traveling_semantic_1.png"",""x"":284,""y"":430},{""src"":""https://test12345.live/images/semantic_sequence/traveling_semantic/traveling_semantic_6.png"",""x"":284,""y"":597},{""src"":""https://test12345.live/images/semantic_sequence/traveling_semantic/traveling_semantic_2.png"",""x"":451,""y"":430},{""src"":""https://test12345.live/images/semantic_sequence/traveling_semantic/traveling_semantic_7.png"",""x"":451,""y"":597},{""src"":""https://test12345.live/images/semantic_sequence/traveling_semantic/traveling_semantic_3.png"",""x"":618,""y"":430},{""src"":""https://test12345.live/images/semantic_sequence/traveling_semantic/traveling_semantic_8.png"",""x"":618,""y"":597},{""src"":""https://test12345.live/images/semantic_sequence/traveling_semantic/traveling_semantic_4.png"",""x"":785,""y"":430},{""src"":""https://test12345.live/images/semantic_sequence/traveling_semantic/traveling_semantic_9.png"",""x"":785,""y"":597},{""src"":""https://test12345.live/images/semantic_sequence/traveling_semantic/traveling_semantic_5.png"",""x"":953,""y"":430},{""src"":""https://test12345.live/images/semantic_sequence/traveling_semantic/traveling_semantic_ten.png"",""x"":953,""y"":597}]","10",""
"","order","17","1025099","0.0-17.0","8A89FC51D4B64D09AB3E6F9D50A92459","conditionC","","56966","[""semantic_sequence/redecorating_a_house_semantic/redecorating_a_house_semantic_5"",""semantic_sequence/redecorating_a_house_semantic/redecorating_a_house_semantic_8"",""semantic_sequence/redecorating_a_house_semantic/redecorating_a_house_semantic_ten"",""semantic_sequence/redecorating_a_house_semantic/redecorating_a_house_semantic_7"",""semantic_sequence/redecorating_a_house_semantic/redecorating_a_house_semantic_4"",""semantic_sequence/redecorating_a_house_semantic/redecorating_a_house_semantic_9"",""semantic_sequence/redecorating_a_house_semantic/redecorating_a_house_semantic_3"",""semantic_sequence/redecorating_a_house_semantic/redecorating_a_house_semantic_2"",""semantic_sequence/redecorating_a_house_semantic/redecorating_a_house_semantic_6"",""semantic_sequence/redecorating_a_house_semantic/redecorating_a_house_semantic_1""]","[{""src"":""https://test12345.live/images/semantic_sequence/redecorating_a_house_semantic/redecorating_a_house_semantic_1.png"",""x"":284,""y"":430,""move_time"":22966},{""src"":""https://test12345.live/images/semantic_sequence/redecorating_a_house_semantic/redecorating_a_house_semantic_2.png"",""x"":451,""y"":430,""move_time"":2569},{""src"":""https://test12345.live/images/semantic_sequence/redecorating_a_house_semantic/redecorating_a_house_semantic_3.png"",""x"":618,""y"":430,""move_time"":3151},{""src"":""https://test12345.live/images/semantic_sequence/redecorating_a_house_semantic/redecorating_a_house_semantic_4.png"",""x"":785,""y"":430,""move_time"":2931},{""src"":""https://test12345.live/images/semantic_sequence/redecorating_a_house_semantic/redecorating_a_house_semantic_5.png"",""x"":953,""y"":430,""move_time"":3118},{""src"":""https://test12345.live/images/semantic_sequence/redecorating_a_house_semantic/redecorating_a_house_semantic_6.png"",""x"":284,""y"":597,""move_time"":5251},{""src"":""https://test12345.live/images/semantic_sequence/redecorating_a_house_semantic/redecorating_a_house_semantic_7.png"",""x"":451,""y"":597,""move_time"":2032},{""src"":""https://test12345.live/images/semantic_sequence/redecorating_a_house_semantic/redecorating_a_house_semantic_8.png"",""x"":618,""y"":597,""move_time"":1801},{""src"":""https://test12345.live/images/semantic_sequence/redecorating_a_house_semantic/redecorating_a_house_semantic_9.png"",""x"":785,""y"":597,""move_time"":1783},{""src"":""https://test12345.live/images/semantic_sequence/redecorating_a_house_semantic/redecorating_a_house_semantic_ten.png"",""x"":953,""y"":597,""move_time"":1851}]","[{""src"":""https://test12345.live/images/semantic_sequence/redecorating_a_house_semantic/redecorating_a_house_semantic_1.png"",""x"":284,""y"":430},{""src"":""https://test12345.live/images/semantic_sequence/redecorating_a_house_semantic/redecorating_a_house_semantic_6.png"",""x"":284,""y"":597},{""src"":""https://test12345.live/images/semantic_sequence/redecorating_a_house_semantic/redecorating_a_house_semantic_2.png"",""x"":451,""y"":430},{""src"":""https://test12345.live/images/semantic_sequence/redecorating_a_house_semantic/redecorating_a_house_semantic_7.png"",""x"":451,""y"":597},{""src"":""https://test12345.live/images/semantic_sequence/redecorating_a_house_semantic/redecorating_a_house_semantic_3.png"",""x"":618,""y"":430},{""src"":""https://test12345.live/images/semantic_sequence/redecorating_a_house_semantic/redecorating_a_house_semantic_8.png"",""x"":618,""y"":597},{""src"":""https://test12345.live/images/semantic_sequence/redecorating_a_house_semantic/redecorating_a_house_semantic_4.png"",""x"":785,""y"":430},{""src"":""https://test12345.live/images/semantic_sequence/redecorating_a_house_semantic/redecorating_a_house_semantic_9.png"",""x"":785,""y"":597},{""src"":""https://test12345.live/images/semantic_sequence/redecorating_a_house_semantic/redecorating_a_house_semantic_5.png"",""x"":953,""y"":430},{""src"":""https://test12345.live/images/semantic_sequence/redecorating_a_house_semantic/redecorating_a_house_semantic_ten.png"",""x"":953,""y"":597}]","10",""
"","order","18","1079894","0.0-18.0","8A89FC51D4B64D09AB3E6F9D50A92459","conditionC","","54766","[""schematic_sequence/restaurant_scheme/restaurant_scheme_2"",""schematic_sequence/restaurant_scheme/restaurant_scheme_1"",""schematic_sequence/restaurant_scheme/restaurant_scheme_3"",""schematic_sequence/restaurant_scheme/restaurant_scheme_ten"",""schematic_sequence/restaurant_scheme/restaurant_scheme_5"",""schematic_sequence/restaurant_scheme/restaurant_scheme_9"",""schematic_sequence/restaurant_scheme/restaurant_scheme_6"",""schematic_sequence/restaurant_scheme/restaurant_scheme_4"",""schematic_sequence/restaurant_scheme/restaurant_scheme_8"",""schematic_sequence/restaurant_scheme/restaurant_scheme_7""]","[{""src"":""https://test12345.live/images/schematic_sequence/restaurant_scheme/restaurant_scheme_1.png"",""x"":284,""y"":430,""move_time"":29651},{""src"":""https://test12345.live/images/schematic_sequence/restaurant_scheme/restaurant_scheme_2.png"",""x"":451,""y"":430,""move_time"":2185},{""src"":""https://test12345.live/images/schematic_sequence/restaurant_scheme/restaurant_scheme_3.png"",""x"":618,""y"":430,""move_time"":3832},{""src"":""https://test12345.live/images/schematic_sequence/restaurant_scheme/restaurant_scheme_4.png"",""x"":785,""y"":430,""move_time"":2402},{""src"":""https://test12345.live/images/schematic_sequence/restaurant_scheme/restaurant_scheme_6.png"",""x"":953,""y"":430,""move_time"":2047},{""src"":""https://test12345.live/images/schematic_sequence/restaurant_scheme/restaurant_scheme_6.png"",""x"":284,""y"":597,""move_time"":3449},{""src"":""https://test12345.live/images/schematic_sequence/restaurant_scheme/restaurant_scheme_5.png"",""x"":953,""y"":430,""move_time"":1685},{""src"":""https://test12345.live/images/schematic_sequence/restaurant_scheme/restaurant_scheme_7.png"",""x"":451,""y"":597,""move_time"":2619},{""src"":""https://test12345.live/images/schematic_sequence/restaurant_scheme/restaurant_scheme_8.png"",""x"":618,""y"":597,""move_time"":2031},{""src"":""https://test12345.live/images/schematic_sequence/restaurant_scheme/restaurant_scheme_9.png"",""x"":785,""y"":597,""move_time"":1600},{""src"":""https://test12345.live/images/schematic_sequence/restaurant_scheme/restaurant_scheme_ten.png"",""x"":953,""y"":597,""move_time"":1702}]","[{""src"":""https://test12345.live/images/schematic_sequence/restaurant_scheme/restaurant_scheme_1.png"",""x"":284,""y"":430},{""src"":""https://test12345.live/images/schematic_sequence/restaurant_scheme/restaurant_scheme_6.png"",""x"":284,""y"":597},{""src"":""https://test12345.live/images/schematic_sequence/restaurant_scheme/restaurant_scheme_2.png"",""x"":451,""y"":430},{""src"":""https://test12345.live/images/schematic_sequence/restaurant_scheme/restaurant_scheme_7.png"",""x"":451,""y"":597},{""src"":""https://test12345.live/images/schematic_sequence/restaurant_scheme/restaurant_scheme_3.png"",""x"":618,""y"":430},{""src"":""https://test12345.live/images/schematic_sequence/restaurant_scheme/restaurant_scheme_8.png"",""x"":618,""y"":597},{""src"":""https://test12345.live/images/schematic_sequence/restaurant_scheme/restaurant_scheme_4.png"",""x"":785,""y"":430},{""src"":""https://test12345.live/images/schematic_sequence/restaurant_scheme/restaurant_scheme_9.png"",""x"":785,""y"":597},{""src"":""https://test12345.live/images/schematic_sequence/restaurant_scheme/restaurant_scheme_5.png"",""x"":953,""y"":430},{""src"":""https://test12345.live/images/schematic_sequence/restaurant_scheme/restaurant_scheme_ten.png"",""x"":953,""y"":597}]","11",""
"","order","19","1117055","0.0-19.0","8A89FC51D4B64D09AB3E6F9D50A92459","conditionC","","37149","[""semantic_sequence/physical_activity_semantic/physical_activity_semantic_7"",""semantic_sequence/physical_activity_semantic/physical_activity_semantic_3"",""semantic_sequence/physical_activity_semantic/physical_activity_semantic_ten"",""semantic_sequence/physical_activity_semantic/physical_activity_semantic_4"",""semantic_sequence/physical_activity_semantic/physical_activity_semantic_1"",""semantic_sequence/physical_activity_semantic/physical_activity_semantic_5"",""semantic_sequence/physical_activity_semantic/physical_activity_semantic_2"",""semantic_sequence/physical_activity_semantic/physical_activity_semantic_8"",""semantic_sequence/physical_activity_semantic/physical_activity_semantic_9"",""semantic_sequence/physical_activity_semantic/physical_activity_semantic_6""]","[{""src"":""https://test12345.live/images/semantic_sequence/physical_activity_semantic/physical_activity_semantic_1.png"",""x"":284,""y"":430,""move_time"":11549},{""src"":""https://test12345.live/images/semantic_sequence/physical_activity_semantic/physical_activity_semantic_2.png"",""x"":451,""y"":430,""move_time"":1618},{""src"":""https://test12345.live/images/semantic_sequence/physical_activity_semantic/physical_activity_semantic_3.png"",""x"":618,""y"":430,""move_time"":1500},{""src"":""https://test12345.live/images/semantic_sequence/physical_activity_semantic/physical_activity_semantic_4.png"",""x"":785,""y"":430,""move_time"":5100},{""src"":""https://test12345.live/images/semantic_sequence/physical_activity_semantic/physical_activity_semantic_5.png"",""x"":953,""y"":430,""move_time"":2701},{""src"":""https://test12345.live/images/semantic_sequence/physical_activity_semantic/physical_activity_semantic_7.png"",""x"":284,""y"":50,""move_time"":2649},{""src"":""https://test12345.live/images/semantic_sequence/physical_activity_semantic/physical_activity_semantic_6.png"",""x"":284,""y"":597,""move_time"":2033},{""src"":""https://test12345.live/images/semantic_sequence/physical_activity_semantic/physical_activity_semantic_7.png"",""x"":451,""y"":597,""move_time"":2282},{""src"":""https://test12345.live/images/semantic_sequence/physical_activity_semantic/physical_activity_semantic_8.png"",""x"":618,""y"":597,""move_time"":1969},{""src"":""https://test12345.live/images/semantic_sequence/physical_activity_semantic/physical_activity_semantic_9.png"",""x"":785,""y"":597,""move_time"":2033},{""src"":""https://test12345.live/images/semantic_sequence/physical_activity_semantic/physical_activity_semantic_ten.png"",""x"":953,""y"":597,""move_time"":1450}]","[{""src"":""https://test12345.live/images/semantic_sequence/physical_activity_semantic/physical_activity_semantic_1.png"",""x"":284,""y"":430},{""src"":""https://test12345.live/images/semantic_sequence/physical_activity_semantic/physical_activity_semantic_6.png"",""x"":284,""y"":597},{""src"":""https://test12345.live/images/semantic_sequence/physical_activity_semantic/physical_activity_semantic_2.png"",""x"":451,""y"":430},{""src"":""https://test12345.live/images/semantic_sequence/physical_activity_semantic/physical_activity_semantic_7.png"",""x"":451,""y"":597},{""src"":""https://test12345.live/images/semantic_sequence/physical_activity_semantic/physical_activity_semantic_3.png"",""x"":618,""y"":430},{""src"":""https://test12345.live/images/semantic_sequence/physical_activity_semantic/physical_activity_semantic_8.png"",""x"":618,""y"":597},{""src"":""https://test12345.live/images/semantic_sequence/physical_activity_semantic/physical_activity_semantic_4.png"",""x"":785,""y"":430},{""src"":""https://test12345.live/images/semantic_sequence/physical_activity_semantic/physical_activity_semantic_9.png"",""x"":785,""y"":597},{""src"":""https://test12345.live/images/semantic_sequence/physical_activity_semantic/physical_activity_semantic_5.png"",""x"":953,""y"":430},{""src"":""https://test12345.live/images/semantic_sequence/physical_activity_semantic/physical_activity_semantic_ten.png"",""x"":953,""y"":597}]","11",""
"","order","20","1190390","0.0-20.0","8A89FC51D4B64D09AB3E6F9D50A92459","conditionC","","73334","[""causal_sequence/museum_causal/museum_causal_5"",""causal_sequence/museum_causal/museum_causal_7"",""causal_sequence/museum_causal/museum_causal_6"",""causal_sequence/museum_causal/museum_causal_4"",""causal_sequence/museum_causal/museum_causal_9"",""causal_sequence/museum_causal/museum_causal_1"",""causal_sequence/museum_causal/museum_causal_3"",""causal_sequence/museum_causal/museum_causal_2"",""causal_sequence/museum_causal/museum_causal_8"",""causal_sequence/museum_causal/museum_causal_ten""]","[{""src"":""https://test12345.live/images/causal_sequence/museum_causal/museum_causal_1.png"",""x"":284,""y"":430,""move_time"":34801},{""src"":""https://test12345.live/images/causal_sequence/museum_causal/museum_causal_2.png"",""x"":451,""y"":430,""move_time"":6782},{""src"":""https://test12345.live/images/causal_sequence/museum_causal/museum_causal_3.png"",""x"":618,""y"":430,""move_time"":2318},{""src"":""https://test12345.live/images/causal_sequence/museum_causal/museum_causal_4.png"",""x"":785,""y"":430,""move_time"":4783},{""src"":""https://test12345.live/images/causal_sequence/museum_causal/museum_causal_5.png"",""x"":953,""y"":430,""move_time"":1999},{""src"":""https://test12345.live/images/causal_sequence/museum_causal/museum_causal_6.png"",""x"":284,""y"":597,""move_time"":2586},{""src"":""https://test12345.live/images/causal_sequence/museum_causal/museum_causal_ten.png"",""x"":953,""y"":217,""move_time"":4598},{""src"":""https://test12345.live/images/causal_sequence/museum_causal/museum_causal_7.png"",""x"":451,""y"":597,""move_time"":1400},{""src"":""https://test12345.live/images/causal_sequence/museum_causal/museum_causal_ten.png"",""x"":618,""y"":597,""move_time"":2033},{""src"":""https://test12345.live/images/causal_sequence/museum_causal/museum_causal_9.png"",""x"":953,""y"":597,""move_time"":3084},{""src"":""https://test12345.live/images/causal_sequence/museum_causal/museum_causal_8.png"",""x"":785,""y"":597,""move_time"":1718}]","[{""src"":""https://test12345.live/images/causal_sequence/museum_causal/museum_causal_1.png"",""x"":284,""y"":430},{""src"":""https://test12345.live/images/causal_sequence/museum_causal/museum_causal_6.png"",""x"":284,""y"":597},{""src"":""https://test12345.live/images/causal_sequence/museum_causal/museum_causal_2.png"",""x"":451,""y"":430},{""src"":""https://test12345.live/images/causal_sequence/museum_causal/museum_causal_7.png"",""x"":451,""y"":597},{""src"":""https://test12345.live/images/causal_sequence/museum_causal/museum_causal_3.png"",""x"":618,""y"":430},{""src"":""https://test12345.live/images/causal_sequence/museum_causal/museum_causal_ten.png"",""x"":618,""y"":597},{""src"":""https://test12345.live/images/causal_sequence/museum_causal/museum_causal_4.png"",""x"":785,""y"":430},{""src"":""https://test12345.live/images/causal_sequence/museum_causal/museum_causal_8.png"",""x"":785,""y"":597},{""src"":""https://test12345.live/images/causal_sequence/museum_causal/museum_causal_5.png"",""x"":953,""y"":430},{""src"":""https://test12345.live/images/causal_sequence/museum_causal/museum_causal_9.png"",""x"":953,""y"":597}]","11",""
"","order","21","1227971","0.0-21.0","8A89FC51D4B64D09AB3E6F9D50A92459","conditionC","","37581","[""semantic_sequence/using_technology_semantic/using_technology_semantic_6"",""semantic_sequence/using_technology_semantic/using_technology_semantic_3"",""semantic_sequence/using_technology_semantic/using_technology_semantic_7"",""semantic_sequence/using_technology_semantic/using_technology_semantic_1"",""semantic_sequence/using_technology_semantic/using_technology_semantic_2"",""semantic_sequence/using_technology_semantic/using_technology_semantic_9"",""semantic_sequence/using_technology_semantic/using_technology_semantic_4"",""semantic_sequence/using_technology_semantic/using_technology_semantic_8"",""semantic_sequence/using_technology_semantic/using_technology_semantic_5"",""semantic_sequence/using_technology_semantic/using_technology_semantic_ten""]","[{""src"":""https://test12345.live/images/semantic_sequence/using_technology_semantic/using_technology_semantic_1.png"",""x"":284,""y"":430,""move_time"":7766},{""src"":""https://test12345.live/images/semantic_sequence/using_technology_semantic/using_technology_semantic_2.png"",""x"":451,""y"":430,""move_time"":2267},{""src"":""https://test12345.live/images/semantic_sequence/using_technology_semantic/using_technology_semantic_3.png"",""x"":618,""y"":430,""move_time"":3416},{""src"":""https://test12345.live/images/semantic_sequence/using_technology_semantic/using_technology_semantic_4.png"",""x"":785,""y"":430,""move_time"":8670},{""src"":""https://test12345.live/images/semantic_sequence/using_technology_semantic/using_technology_semantic_5.png"",""x"":953,""y"":430,""move_time"":1464},{""src"":""https://test12345.live/images/semantic_sequence/using_technology_semantic/using_technology_semantic_8.png"",""x"":284,""y"":597,""move_time"":1714},{""src"":""https://test12345.live/images/semantic_sequence/using_technology_semantic/using_technology_semantic_7.png"",""x"":451,""y"":597,""move_time"":1687},{""src"":""https://test12345.live/images/semantic_sequence/using_technology_semantic/using_technology_semantic_6.png"",""x"":618,""y"":217,""move_time"":3565},{""src"":""https://test12345.live/images/semantic_sequence/using_technology_semantic/using_technology_semantic_8.png"",""x"":618,""y"":597,""move_time"":1518},{""src"":""https://test12345.live/images/semantic_sequence/using_technology_semantic/using_technology_semantic_6.png"",""x"":284,""y"":597,""move_time"":1483},{""src"":""https://test12345.live/images/semantic_sequence/using_technology_semantic/using_technology_semantic_9.png"",""x"":785,""y"":597,""move_time"":1499},{""src"":""https://test12345.live/images/semantic_sequence/using_technology_semantic/using_technology_semantic_ten.png"",""x"":953,""y"":597,""move_time"":1601}]","[{""src"":""https://test12345.live/images/semantic_sequence/using_technology_semantic/using_technology_semantic_1.png"",""x"":284,""y"":430},{""src"":""https://test12345.live/images/semantic_sequence/using_technology_semantic/using_technology_semantic_6.png"",""x"":284,""y"":597},{""src"":""https://test12345.live/images/semantic_sequence/using_technology_semantic/using_technology_semantic_2.png"",""x"":451,""y"":430},{""src"":""https://test12345.live/images/semantic_sequence/using_technology_semantic/using_technology_semantic_7.png"",""x"":451,""y"":597},{""src"":""https://test12345.live/images/semantic_sequence/using_technology_semantic/using_technology_semantic_3.png"",""x"":618,""y"":430},{""src"":""https://test12345.live/images/semantic_sequence/using_technology_semantic/using_technology_semantic_8.png"",""x"":618,""y"":597},{""src"":""https://test12345.live/images/semantic_sequence/using_technology_semantic/using_technology_semantic_4.png"",""x"":785,""y"":430},{""src"":""https://test12345.live/images/semantic_sequence/using_technology_semantic/using_technology_semantic_9.png"",""x"":785,""y"":597},{""src"":""https://test12345.live/images/semantic_sequence/using_technology_semantic/using_technology_semantic_5.png"",""x"":953,""y"":430},{""src"":""https://test12345.live/images/semantic_sequence/using_technology_semantic/using_technology_semantic_ten.png"",""x"":953,""y"":597}]","12",""
"","order","22","1257255","0.0-22.0","8A89FC51D4B64D09AB3E6F9D50A92459","conditionC","","29284","[""semantic_sequence/exploring_nature_semantic/exploring_nature_semantic_9"",""semantic_sequence/exploring_nature_semantic/exploring_nature_semantic_5"",""semantic_sequence/exploring_nature_semantic/exploring_nature_semantic_3"",""semantic_sequence/exploring_nature_semantic/exploring_nature_semantic_6"",""semantic_sequence/exploring_nature_semantic/exploring_nature_semantic_ten"",""semantic_sequence/exploring_nature_semantic/exploring_nature_semantic_4"",""semantic_sequence/exploring_nature_semantic/exploring_nature_semantic_7"",""semantic_sequence/exploring_nature_semantic/exploring_nature_semantic_1"",""semantic_sequence/exploring_nature_semantic/exploring_nature_semantic_8"",""semantic_sequence/exploring_nature_semantic/exploring_nature_semantic_2""]","[{""src"":""https://test12345.live/images/semantic_sequence/exploring_nature_semantic/exploring_nature_semantic_1.png"",""x"":284,""y"":430,""move_time"":5934},{""src"":""https://test12345.live/images/semantic_sequence/exploring_nature_semantic/exploring_nature_semantic_2.png"",""x"":451,""y"":430,""move_time"":3253},{""src"":""https://test12345.live/images/semantic_sequence/exploring_nature_semantic/exploring_nature_semantic_3.png"",""x"":618,""y"":430,""move_time"":1915},{""src"":""https://test12345.live/images/semantic_sequence/exploring_nature_semantic/exploring_nature_semantic_4.png"",""x"":785,""y"":430,""move_time"":3214},{""src"":""https://test12345.live/images/semantic_sequence/exploring_nature_semantic/exploring_nature_semantic_5.png"",""x"":953,""y"":430,""move_time"":1700},{""src"":""https://test12345.live/images/semantic_sequence/exploring_nature_semantic/exploring_nature_semantic_6.png"",""x"":284,""y"":597,""move_time"":2134},{""src"":""https://test12345.live/images/semantic_sequence/exploring_nature_semantic/exploring_nature_semantic_7.png"",""x"":451,""y"":597,""move_time"":3302},{""src"":""https://test12345.live/images/semantic_sequence/exploring_nature_semantic/exploring_nature_semantic_8.png"",""x"":618,""y"":597,""move_time"":3783},{""src"":""https://test12345.live/images/semantic_sequence/exploring_nature_semantic/exploring_nature_semantic_9.png"",""x"":785,""y"":597,""move_time"":1615},{""src"":""https://test12345.live/images/semantic_sequence/exploring_nature_semantic/exploring_nature_semantic_ten.png"",""x"":953,""y"":597,""move_time"":1583}]","[{""src"":""https://test12345.live/images/semantic_sequence/exploring_nature_semantic/exploring_nature_semantic_1.png"",""x"":284,""y"":430},{""src"":""https://test12345.live/images/semantic_sequence/exploring_nature_semantic/exploring_nature_semantic_6.png"",""x"":284,""y"":597},{""src"":""https://test12345.live/images/semantic_sequence/exploring_nature_semantic/exploring_nature_semantic_2.png"",""x"":451,""y"":430},{""src"":""https://test12345.live/images/semantic_sequence/exploring_nature_semantic/exploring_nature_semantic_7.png"",""x"":451,""y"":597},{""src"":""https://test12345.live/images/semantic_sequence/exploring_nature_semantic/exploring_nature_semantic_3.png"",""x"":618,""y"":430},{""src"":""https://test12345.live/images/semantic_sequence/exploring_nature_semantic/exploring_nature_semantic_8.png"",""x"":618,""y"":597},{""src"":""https://test12345.live/images/semantic_sequence/exploring_nature_semantic/exploring_nature_semantic_4.png"",""x"":785,""y"":430},{""src"":""https://test12345.live/images/semantic_sequence/exploring_nature_semantic/exploring_nature_semantic_9.png"",""x"":785,""y"":597},{""src"":""https://test12345.live/images/semantic_sequence/exploring_nature_semantic/exploring_nature_semantic_5.png"",""x"":953,""y"":430},{""src"":""https://test12345.live/images/semantic_sequence/exploring_nature_semantic/exploring_nature_semantic_ten.png"",""x"":953,""y"":597}]","10",""
"","order","23","1295487","0.0-23.0","8A89FC51D4B64D09AB3E6F9D50A92459","conditionC","","38232","[""semantic_sequence/maintaining_a_car_semantic/maintaining_a_car_semantic_ten"",""semantic_sequence/maintaining_a_car_semantic/maintaining_a_car_semantic_1"",""semantic_sequence/maintaining_a_car_semantic/maintaining_a_car_semantic_4"",""semantic_sequence/maintaining_a_car_semantic/maintaining_a_car_semantic_7"",""semantic_sequence/maintaining_a_car_semantic/maintaining_a_car_semantic_9"",""semantic_sequence/maintaining_a_car_semantic/maintaining_a_car_semantic_3"",""semantic_sequence/maintaining_a_car_semantic/maintaining_a_car_semantic_6"",""semantic_sequence/maintaining_a_car_semantic/maintaining_a_car_semantic_2"",""semantic_sequence/maintaining_a_car_semantic/maintaining_a_car_semantic_8"",""semantic_sequence/maintaining_a_car_semantic/maintaining_a_car_semantic_5""]","[{""src"":""https://test12345.live/images/semantic_sequence/maintaining_a_car_semantic/maintaining_a_car_semantic_1.png"",""x"":284,""y"":430,""move_time"":7600},{""src"":""https://test12345.live/images/semantic_sequence/maintaining_a_car_semantic/maintaining_a_car_semantic_2.png"",""x"":451,""y"":430,""move_time"":3951},{""src"":""https://test12345.live/images/semantic_sequence/maintaining_a_car_semantic/maintaining_a_car_semantic_3.png"",""x"":618,""y"":430,""move_time"":4834},{""src"":""https://test12345.live/images/semantic_sequence/maintaining_a_car_semantic/maintaining_a_car_semantic_4.png"",""x"":785,""y"":430,""move_time"":1748},{""src"":""https://test12345.live/images/semantic_sequence/maintaining_a_car_semantic/maintaining_a_car_semantic_5.png"",""x"":953,""y"":430,""move_time"":2734},{""src"":""https://test12345.live/images/semantic_sequence/maintaining_a_car_semantic/maintaining_a_car_semantic_6.png"",""x"":284,""y"":597,""move_time"":3200},{""src"":""https://test12345.live/images/semantic_sequence/maintaining_a_car_semantic/maintaining_a_car_semantic_7.png"",""x"":451,""y"":597,""move_time"":2200},{""src"":""https://test12345.live/images/semantic_sequence/maintaining_a_car_semantic/maintaining_a_car_semantic_8.png"",""x"":618,""y"":597,""move_time"":2318},{""src"":""https://test12345.live/images/semantic_sequence/maintaining_a_car_semantic/maintaining_a_car_semantic_9.png"",""x"":785,""y"":597,""move_time"":3083},{""src"":""https://test12345.live/images/semantic_sequence/maintaining_a_car_semantic/maintaining_a_car_semantic_ten.png"",""x"":953,""y"":597,""move_time"":2318}]","[{""src"":""https://test12345.live/images/semantic_sequence/maintaining_a_car_semantic/maintaining_a_car_semantic_1.png"",""x"":284,""y"":430},{""src"":""https://test12345.live/images/semantic_sequence/maintaining_a_car_semantic/maintaining_a_car_semantic_6.png"",""x"":284,""y"":597},{""src"":""https://test12345.live/images/semantic_sequence/maintaining_a_car_semantic/maintaining_a_car_semantic_2.png"",""x"":451,""y"":430},{""src"":""https://test12345.live/images/semantic_sequence/maintaining_a_car_semantic/maintaining_a_car_semantic_7.png"",""x"":451,""y"":597},{""src"":""https://test12345.live/images/semantic_sequence/maintaining_a_car_semantic/maintaining_a_car_semantic_3.png"",""x"":618,""y"":430},{""src"":""https://test12345.live/images/semantic_sequence/maintaining_a_car_semantic/maintaining_a_car_semantic_8.png"",""x"":618,""y"":597},{""src"":""https://test12345.live/images/semantic_sequence/maintaining_a_car_semantic/maintaining_a_car_semantic_4.png"",""x"":785,""y"":430},{""src"":""https://test12345.live/images/semantic_sequence/maintaining_a_car_semantic/maintaining_a_car_semantic_9.png"",""x"":785,""y"":597},{""src"":""https://test12345.live/images/semantic_sequence/maintaining_a_car_semantic/maintaining_a_car_semantic_5.png"",""x"":953,""y"":430},{""src"":""https://test12345.live/images/semantic_sequence/maintaining_a_car_semantic/maintaining_a_car_semantic_ten.png"",""x"":953,""y"":597}]","10",""
"","order","24","1389638","0.0-24.0","8A89FC51D4B64D09AB3E6F9D50A92459","conditionC","","94152","[""semantic_sequence/self_care_activities_semantic/self_care_activities_semantic_ten"",""semantic_sequence/self_care_activities_semantic/self_care_activities_semantic_2"",""semantic_sequence/self_care_activities_semantic/self_care_activities_semantic_4"",""semantic_sequence/self_care_activities_semantic/self_care_activities_semantic_6"",""semantic_sequence/self_care_activities_semantic/self_care_activities_semantic_1"",""semantic_sequence/self_care_activities_semantic/self_care_activities_semantic_9"",""semantic_sequence/self_care_activities_semantic/self_care_activities_semantic_7"",""semantic_sequence/self_care_activities_semantic/self_care_activities_semantic_3"",""semantic_sequence/self_care_activities_semantic/self_care_activities_semantic_8"",""semantic_sequence/self_care_activities_semantic/semantic_self_care_activities_semantic_9""]","[{""src"":""https://test12345.live/images/semantic_sequence/self_care_activities_semantic/self_care_activities_semantic_1.png"",""x"":284,""y"":430,""move_time"":22833},{""src"":""https://test12345.live/images/semantic_sequence/self_care_activities_semantic/self_care_activities_semantic_2.png"",""x"":451,""y"":430,""move_time"":6033},{""src"":""https://test12345.live/images/semantic_sequence/self_care_activities_semantic/self_care_activities_semantic_3.png"",""x"":618,""y"":430,""move_time"":5250},{""src"":""https://test12345.live/images/semantic_sequence/self_care_activities_semantic/self_care_activities_semantic_4.png"",""x"":785,""y"":430,""move_time"":2169},{""src"":""https://test12345.live/images/semantic_sequence/self_care_activities_semantic/self_care_activities_semantic_6.png"",""x"":953,""y"":430,""move_time"":38083},{""src"":""https://test12345.live/images/semantic_sequence/self_care_activities_semantic/self_care_activities_semantic_7.png"",""x"":284,""y"":597,""move_time"":1949},{""src"":""https://test12345.live/images/semantic_sequence/self_care_activities_semantic/self_care_activities_semantic_8.png"",""x"":451,""y"":597,""move_time"":9319},{""src"":""https://test12345.live/images/semantic_sequence/self_care_activities_semantic/semantic_self_care_activities_semantic_9.png"",""x"":618,""y"":597,""move_time"":1532},{""src"":""https://test12345.live/images/semantic_sequence/self_care_activities_semantic/self_care_activities_semantic_9.png"",""x"":785,""y"":597,""move_time"":1901},{""src"":""https://test12345.live/images/semantic_sequence/self_care_activities_semantic/self_care_activities_semantic_ten.png"",""x"":953,""y"":597,""move_time"":1700}]","[{""src"":""https://test12345.live/images/semantic_sequence/self_care_activities_semantic/self_care_activities_semantic_1.png"",""x"":284,""y"":430},{""src"":""https://test12345.live/images/semantic_sequence/self_care_activities_semantic/self_care_activities_semantic_7.png"",""x"":284,""y"":597},{""src"":""https://test12345.live/images/semantic_sequence/self_care_activities_semantic/self_care_activities_semantic_2.png"",""x"":451,""y"":430},{""src"":""https://test12345.live/images/semantic_sequence/self_care_activities_semantic/self_care_activities_semantic_8.png"",""x"":451,""y"":597},{""src"":""https://test12345.live/images/semantic_sequence/self_care_activities_semantic/self_care_activities_semantic_3.png"",""x"":618,""y"":430},{""src"":""https://test12345.live/images/semantic_sequence/self_care_activities_semantic/semantic_self_care_activities_semantic_9.png"",""x"":618,""y"":597},{""src"":""https://test12345.live/images/semantic_sequence/self_care_activities_semantic/self_care_activities_semantic_4.png"",""x"":785,""y"":430},{""src"":""https://test12345.live/images/semantic_sequence/self_care_activities_semantic/self_care_activities_semantic_9.png"",""x"":785,""y"":597},{""src"":""https://test12345.live/images/semantic_sequence/self_care_activities_semantic/self_care_activities_semantic_6.png"",""x"":953,""y"":430},{""src"":""https://test12345.live/images/semantic_sequence/self_care_activities_semantic/self_care_activities_semantic_ten.png"",""x"":953,""y"":597}]","10",""
"","order","25","1473751","0.0-25.0","8A89FC51D4B64D09AB3E6F9D50A92459","conditionC","","84114","[""semantic_sequence/cat_care_semantic/cat_care_semantic_4"",""semantic_sequence/cat_care_semantic/cat_care_semantic_8"",""semantic_sequence/cat_care_semantic/cat_care_semantic_1"",""semantic_sequence/cat_care_semantic/cat_care_semantic_ten"",""semantic_sequence/cat_care_semantic/cat_care_semantic_9"",""semantic_sequence/cat_care_semantic/cat_care_semantic_2"",""semantic_sequence/cat_care_semantic/cat_care_semantic_6"",""semantic_sequence/cat_care_semantic/cat_care_semantic_5"",""semantic_sequence/cat_care_semantic/cat_care_semantic_7"",""semantic_sequence/cat_care_semantic/cat_care_semantic_3""]","[{""src"":""https://test12345.live/images/semantic_sequence/cat_care_semantic/cat_care_semantic_4.png"",""x"":284,""y"":430,""move_time"":22231},{""src"":""https://test12345.live/images/semantic_sequence/cat_care_semantic/cat_care_semantic_7.png"",""x"":451,""y"":430,""move_time"":6518},{""src"":""https://test12345.live/images/semantic_sequence/cat_care_semantic/cat_care_semantic_3.png"",""x"":284,""y"":430,""move_time"":11966},{""src"":""https://test12345.live/images/semantic_sequence/cat_care_semantic/cat_care_semantic_4.png"",""x"":451,""y"":430,""move_time"":1752},{""src"":""https://test12345.live/images/semantic_sequence/cat_care_semantic/cat_care_semantic_4.png"",""x"":618,""y"":430,""move_time"":6465},{""src"":""https://test12345.live/images/semantic_sequence/cat_care_semantic/cat_care_semantic_3.png"",""x"":451,""y"":430,""move_time"":1285},{""src"":""https://test12345.live/images/semantic_sequence/cat_care_semantic/cat_care_semantic_1.png"",""x"":284,""y"":430,""move_time"":6549},{""src"":""https://test12345.live/images/semantic_sequence/cat_care_semantic/cat_care_semantic_4.png"",""x"":785,""y"":430,""move_time"":5831},{""src"":""https://test12345.live/images/semantic_sequence/cat_care_semantic/cat_care_semantic_3.png"",""x"":618,""y"":430,""move_time"":1333},{""src"":""https://test12345.live/images/semantic_sequence/cat_care_semantic/cat_care_semantic_2.png"",""x"":451,""y"":430,""move_time"":4301},{""src"":""https://test12345.live/images/semantic_sequence/cat_care_semantic/cat_care_semantic_5.png"",""x"":953,""y"":430,""move_time"":3683},{""src"":""https://test12345.live/images/semantic_sequence/cat_care_semantic/cat_care_semantic_6.png"",""x"":284,""y"":597,""move_time"":2000},{""src"":""https://test12345.live/images/semantic_sequence/cat_care_semantic/cat_care_semantic_7.png"",""x"":451,""y"":597,""move_time"":2632},{""src"":""https://test12345.live/images/semantic_sequence/cat_care_semantic/cat_care_semantic_8.png"",""x"":618,""y"":597,""move_time"":2152},{""src"":""https://test12345.live/images/semantic_sequence/cat_care_semantic/cat_care_semantic_9.png"",""x"":785,""y"":597,""move_time"":1631},{""src"":""https://test12345.live/images/semantic_sequence/cat_care_semantic/cat_care_semantic_ten.png"",""x"":953,""y"":597,""move_time"":1571}]","[{""src"":""https://test12345.live/images/semantic_sequence/cat_care_semantic/cat_care_semantic_1.png"",""x"":284,""y"":430},{""src"":""https://test12345.live/images/semantic_sequence/cat_care_semantic/cat_care_semantic_6.png"",""x"":284,""y"":597},{""src"":""https://test12345.live/images/semantic_sequence/cat_care_semantic/cat_care_semantic_2.png"",""x"":451,""y"":430},{""src"":""https://test12345.live/images/semantic_sequence/cat_care_semantic/cat_care_semantic_7.png"",""x"":451,""y"":597},{""src"":""https://test12345.live/images/semantic_sequence/cat_care_semantic/cat_care_semantic_3.png"",""x"":618,""y"":430},{""src"":""https://test12345.live/images/semantic_sequence/cat_care_semantic/cat_care_semantic_8.png"",""x"":618,""y"":597},{""src"":""https://test12345.live/images/semantic_sequence/cat_care_semantic/cat_care_semantic_4.png"",""x"":785,""y"":430},{""src"":""https://test12345.live/images/semantic_sequence/cat_care_semantic/cat_care_semantic_9.png"",""x"":785,""y"":597},{""src"":""https://test12345.live/images/semantic_sequence/cat_care_semantic/cat_care_semantic_5.png"",""x"":953,""y"":430},{""src"":""https://test12345.live/images/semantic_sequence/cat_care_semantic/cat_care_semantic_ten.png"",""x"":953,""y"":597}]","16",""
"","order","26","1526818","0.0-26.0","8A89FC51D4B64D09AB3E6F9D50A92459","conditionC","","53067","[""causal_sequence/saving_a_cat_causal/saving_a_cat_causal_4"",""causal_sequence/saving_a_cat_causal/saving_a_cat_causal_5"",""causal_sequence/saving_a_cat_causal/saving_a_cat_causal_7"",""causal_sequence/saving_a_cat_causal/saving_a_cat_causal_9"",""causal_sequence/saving_a_cat_causal/saving_a_cat_causal_2"",""causal_sequence/saving_a_cat_causal/saving_a_cat_causal_3"",""causal_sequence/saving_a_cat_causal/saving_a_cat_causal_6"",""causal_sequence/saving_a_cat_causal/saving_a_cat_causal_8"",""causal_sequence/saving_a_cat_causal/saving_a_cat_causal_1"",""causal_sequence/saving_a_cat_causal/saving_a_cat_causal_ten""]","[{""src"":""https://test12345.live/images/causal_sequence/saving_a_cat_causal/saving_a_cat_causal_2.png"",""x"":284,""y"":430,""move_time"":11900},{""src"":""https://test12345.live/images/causal_sequence/saving_a_cat_causal/saving_a_cat_causal_3.png"",""x"":451,""y"":430,""move_time"":2334},{""src"":""https://test12345.live/images/causal_sequence/saving_a_cat_causal/saving_a_cat_causal_3.png"",""x"":618,""y"":430,""move_time"":4182},{""src"":""https://test12345.live/images/causal_sequence/saving_a_cat_causal/saving_a_cat_causal_2.png"",""x"":451,""y"":430,""move_time"":1619},{""src"":""https://test12345.live/images/causal_sequence/saving_a_cat_causal/saving_a_cat_causal_1.png"",""x"":284,""y"":430,""move_time"":7764},{""src"":""https://test12345.live/images/causal_sequence/saving_a_cat_causal/saving_a_cat_causal_4.png"",""x"":785,""y"":430,""move_time"":7134},{""src"":""https://test12345.live/images/causal_sequence/saving_a_cat_causal/saving_a_cat_causal_5.png"",""x"":953,""y"":430,""move_time"":7519},{""src"":""https://test12345.live/images/causal_sequence/saving_a_cat_causal/saving_a_cat_causal_6.png"",""x"":284,""y"":597,""move_time"":2480},{""src"":""https://test12345.live/images/causal_sequence/saving_a_cat_causal/saving_a_cat_causal_7.png"",""x"":451,""y"":597,""move_time"":2136},{""src"":""https://test12345.live/images/causal_sequence/saving_a_cat_causal/saving_a_cat_causal_8.png"",""x"":618,""y"":597,""move_time"":1615},{""src"":""https://test12345.live/images/causal_sequence/saving_a_cat_causal/saving_a_cat_causal_9.png"",""x"":785,""y"":597,""move_time"":1635},{""src"":""https://test12345.live/images/causal_sequence/saving_a_cat_causal/saving_a_cat_causal_ten.png"",""x"":953,""y"":597,""move_time"":1298}]","[{""src"":""https://test12345.live/images/causal_sequence/saving_a_cat_causal/saving_a_cat_causal_1.png"",""x"":284,""y"":430},{""src"":""https://test12345.live/images/causal_sequence/saving_a_cat_causal/saving_a_cat_causal_6.png"",""x"":284,""y"":597},{""src"":""https://test12345.live/images/causal_sequence/saving_a_cat_causal/saving_a_cat_causal_2.png"",""x"":451,""y"":430},{""src"":""https://test12345.live/images/causal_sequence/saving_a_cat_causal/saving_a_cat_causal_7.png"",""x"":451,""y"":597},{""src"":""https://test12345.live/images/causal_sequence/saving_a_cat_causal/saving_a_cat_causal_3.png"",""x"":618,""y"":430},{""src"":""https://test12345.live/images/causal_sequence/saving_a_cat_causal/saving_a_cat_causal_8.png"",""x"":618,""y"":597},{""src"":""https://test12345.live/images/causal_sequence/saving_a_cat_causal/saving_a_cat_causal_4.png"",""x"":785,""y"":430},{""src"":""https://test12345.live/images/causal_sequence/saving_a_cat_causal/saving_a_cat_causal_9.png"",""x"":785,""y"":597},{""src"":""https://test12345.live/images/causal_sequence/saving_a_cat_causal/saving_a_cat_causal_5.png"",""x"":953,""y"":430},{""src"":""https://test12345.live/images/causal_sequence/saving_a_cat_causal/saving_a_cat_causal_ten.png"",""x"":953,""y"":597}]","12",""
"","order","27","1609765","0.0-27.0","8A89FC51D4B64D09AB3E6F9D50A92459","conditionC","","82948","[""schematic_sequence/dinner_party_scheme/dinner_party_scheme_4"",""schematic_sequence/dinner_party_scheme/dinner_party_scheme_ten"",""schematic_sequence/dinner_party_scheme/dinner_party_scheme_5"",""schematic_sequence/dinner_party_scheme/dinner_party_scheme_7"",""schematic_sequence/dinner_party_scheme/dinner_party_scheme_1"",""schematic_sequence/dinner_party_scheme/dinner_party_scheme_9"",""schematic_sequence/dinner_party_scheme/dinner_party_scheme_6"",""schematic_sequence/dinner_party_scheme/dinner_party_scheme_8"",""schematic_sequence/dinner_party_scheme/dinner_party_scheme_2"",""schematic_sequence/dinner_party_scheme/dinner_party_scheme_3""]","[{""src"":""https://test12345.live/images/schematic_sequence/dinner_party_scheme/dinner_party_scheme_1.png"",""x"":284,""y"":430,""move_time"":53716},{""src"":""https://test12345.live/images/schematic_sequence/dinner_party_scheme/dinner_party_scheme_2.png"",""x"":451,""y"":430,""move_time"":2150},{""src"":""https://test12345.live/images/schematic_sequence/dinner_party_scheme/dinner_party_scheme_3.png"",""x"":618,""y"":430,""move_time"":2048},{""src"":""https://test12345.live/images/schematic_sequence/dinner_party_scheme/dinner_party_scheme_ten.png"",""x"":785,""y"":430,""move_time"":4568},{""src"":""https://test12345.live/images/schematic_sequence/dinner_party_scheme/dinner_party_scheme_4.png"",""x"":953,""y"":430,""move_time"":2283},{""src"":""https://test12345.live/images/schematic_sequence/dinner_party_scheme/dinner_party_scheme_5.png"",""x"":284,""y"":597,""move_time"":3767},{""src"":""https://test12345.live/images/schematic_sequence/dinner_party_scheme/dinner_party_scheme_6.png"",""x"":451,""y"":597,""move_time"":2701},{""src"":""https://test12345.live/images/schematic_sequence/dinner_party_scheme/dinner_party_scheme_7.png"",""x"":618,""y"":597,""move_time"":5884},{""src"":""https://test12345.live/images/schematic_sequence/dinner_party_scheme/dinner_party_scheme_9.png"",""x"":785,""y"":597,""move_time"":2032},{""src"":""https://test12345.live/images/schematic_sequence/dinner_party_scheme/dinner_party_scheme_8.png"",""x"":953,""y"":597,""move_time"":2284}]","[{""src"":""https://test12345.live/images/schematic_sequence/dinner_party_scheme/dinner_party_scheme_1.png"",""x"":284,""y"":430},{""src"":""https://test12345.live/images/schematic_sequence/dinner_party_scheme/dinner_party_scheme_5.png"",""x"":284,""y"":597},{""src"":""https://test12345.live/images/schematic_sequence/dinner_party_scheme/dinner_party_scheme_2.png"",""x"":451,""y"":430},{""src"":""https://test12345.live/images/schematic_sequence/dinner_party_scheme/dinner_party_scheme_6.png"",""x"":451,""y"":597},{""src"":""https://test12345.live/images/schematic_sequence/dinner_party_scheme/dinner_party_scheme_3.png"",""x"":618,""y"":430},{""src"":""https://test12345.live/images/schematic_sequence/dinner_party_scheme/dinner_party_scheme_7.png"",""x"":618,""y"":597},{""src"":""https://test12345.live/images/schematic_sequence/dinner_party_scheme/dinner_party_scheme_ten.png"",""x"":785,""y"":430},{""src"":""https://test12345.live/images/schematic_sequence/dinner_party_scheme/dinner_party_scheme_9.png"",""x"":785,""y"":597},{""src"":""https://test12345.live/images/schematic_sequence/dinner_party_scheme/dinner_party_scheme_4.png"",""x"":953,""y"":430},{""src"":""https://test12345.live/images/schematic_sequence/dinner_party_scheme/dinner_party_scheme_8.png"",""x"":953,""y"":597}]","10",""
"","survey-text","28","1613368","0.0-28.0","8A89FC51D4B64D09AB3E6F9D50A92459","conditionC","","3597.89999999851","","","","","{""Q0"":""39""}"
"","survey-text","29","1623150","0.0-29.0","8A89FC51D4B64D09AB3E6F9D50A92459","conditionC","","9780.39999999851","","","","","{""Q0"":""MALE""}"
"","instructions","30","1641132","0.0-30.0","8A89FC51D4B64D09AB3E6F9D50A92459","conditionC","[{""page_index"":0,""viewing_time"":17981}]","17981.39999999851","","","","",""
