"success","trial_type","trial_index","time_elapsed","internal_node_id","subject","condition","view_history","rt","initial_locations","moves","final_locations_3","number_of_moves","responses"
"true","fullscreen","0","13687","0.0-0.0","E8B0A6E592254AF1BB3A758752E979C0","conditionC","","","","","","",""
"","instructions","1","56470","0.0-1.0","E8B0A6E592254AF1BB3A758752E979C0","conditionC","[{""page_index"":0,""viewing_time"":2453.0999999046326},{""page_index"":1,""viewing_time"":13711.900000095367},{""page_index"":2,""viewing_time"":2718.2999999523163},{""page_index"":3,""viewing_time"":21927.799999952316},{""page_index"":4,""viewing_time"":1970.5}]","42782","","","","",""
"","order","2","82076","0.0-2.0","E8B0A6E592254AF1BB3A758752E979C0","conditionC","","25604","[""instructions/movie_4"",""instructions/movie_3"",""instructions/movie_2"",""instructions/movie_1"",""blank"",""blank"",""blank"",""blank"",""blank"",""blank""]","[{""src"":""https://test12345.live/images/instructions/movie_2.png"",""x"":256,""y"":397,""move_time"":16727},{""src"":""https://test12345.live/images/instructions/movie_1.png"",""x"":407,""y"":397,""move_time"":2629},{""src"":""https://test12345.live/images/instructions/movie_3.png"",""x"":558,""y"":397,""move_time"":2046},{""src"":""https://test12345.live/images/instructions/movie_4.png"",""x"":709,""y"":397,""move_time"":2215}]","[{""src"":""https://test12345.live/images/instructions/movie_2.png"",""x"":256,""y"":397},{""src"":""https://test12345.live/images/blank6.jpg"",""x"":256,""y"":548},{""src"":""https://test12345.live/images/instructions/movie_1.png"",""x"":407,""y"":397},{""src"":""https://test12345.live/images/blank7.jpg"",""x"":407,""y"":548},{""src"":""https://test12345.live/images/instructions/movie_3.png"",""x"":558,""y"":397},{""src"":""https://test12345.live/images/blank8.jpg"",""x"":558,""y"":548},{""src"":""https://test12345.live/images/instructions/movie_4.png"",""x"":709,""y"":397},{""src"":""https://test12345.live/images/blank9.jpg"",""x"":709,""y"":548},{""src"":""https://test12345.live/images/blank5.jpg"",""x"":860,""y"":397},{""src"":""https://test12345.live/images/blank10.jpg"",""x"":860,""y"":548}]","4",""
"","instructions","3","84613","0.0-3.0","E8B0A6E592254AF1BB3A758752E979C0","conditionC","[{""page_index"":0,""viewing_time"":2537}]","2537.0999999046326","","","","",""
"","order","4","188402","0.0-4.0","E8B0A6E592254AF1BB3A758752E979C0","conditionC","","103788","[""causal_sequence/package_causal/package_causal_1"",""causal_sequence/package_causal/package_causal_ten"",""causal_sequence/package_causal/package_causal_9"",""causal_sequence/package_causal/package_causal_2"",""causal_sequence/package_causal/package_causal_3"",""causal_sequence/package_causal/package_causal_4"",""causal_sequence/package_causal/package_causal_5"",""causal_sequence/package_causal/package_causal_8"",""causal_sequence/package_causal/package_causal_6"",""causal_sequence/package_causal/package_causal_7""]","[{""src"":""https://test12345.live/images/causal_sequence/package_causal/package_causal_2.png"",""x"":256,""y"":397,""move_time"":20208},{""src"":""https://test12345.live/images/causal_sequence/package_causal/package_causal_3.png"",""x"":407,""y"":397,""move_time"":2244},{""src"":""https://test12345.live/images/causal_sequence/package_causal/package_causal_4.png"",""x"":256,""y"":200,""move_time"":6550},{""src"":""https://test12345.live/images/causal_sequence/package_causal/package_causal_3.png"",""x"":709,""y"":49,""move_time"":6594},{""src"":""https://test12345.live/images/causal_sequence/package_causal/package_causal_1.png"",""x"":407,""y"":397,""move_time"":23655},{""src"":""https://test12345.live/images/causal_sequence/package_causal/package_causal_4.png"",""x"":558,""y"":397,""move_time"":1925},{""src"":""https://test12345.live/images/causal_sequence/package_causal/package_causal_5.png"",""x"":709,""y"":397,""move_time"":1935},{""src"":""https://test12345.live/images/causal_sequence/package_causal/package_causal_6.png"",""x"":860,""y"":397,""move_time"":3292},{""src"":""https://test12345.live/images/causal_sequence/package_causal/package_causal_7.png"",""x"":256,""y"":548,""move_time"":1750},{""src"":""https://test12345.live/images/causal_sequence/package_causal/package_causal_7.png"",""x"":709,""y"":548,""move_time"":9156},{""src"":""https://test12345.live/images/causal_sequence/package_causal/package_causal_6.png"",""x"":558,""y"":548,""move_time"":1694},{""src"":""https://test12345.live/images/causal_sequence/package_causal/package_causal_5.png"",""x"":407,""y"":548,""move_time"":1462},{""src"":""https://test12345.live/images/causal_sequence/package_causal/package_causal_4.png"",""x"":709,""y"":397,""move_time"":6975},{""src"":""https://test12345.live/images/causal_sequence/package_causal/package_causal_3.png"",""x"":558,""y"":397,""move_time"":2072},{""src"":""https://test12345.live/images/causal_sequence/package_causal/package_causal_5.png"",""x"":860,""y"":397,""move_time"":3192},{""src"":""https://test12345.live/images/causal_sequence/package_causal/package_causal_6.png"",""x"":256,""y"":548,""move_time"":1686},{""src"":""https://test12345.live/images/causal_sequence/package_causal/package_causal_7.png"",""x"":407,""y"":548,""move_time"":1739},{""src"":""https://test12345.live/images/causal_sequence/package_causal/package_causal_8.png"",""x"":558,""y"":548,""move_time"":1861},{""src"":""https://test12345.live/images/causal_sequence/package_causal/package_causal_9.png"",""x"":709,""y"":548,""move_time"":2900},{""src"":""https://test12345.live/images/causal_sequence/package_causal/package_causal_ten.png"",""x"":860,""y"":548,""move_time"":1992}]","[{""src"":""https://test12345.live/images/causal_sequence/package_causal/package_causal_2.png"",""x"":256,""y"":397},{""src"":""https://test12345.live/images/causal_sequence/package_causal/package_causal_6.png"",""x"":256,""y"":548},{""src"":""https://test12345.live/images/causal_sequence/package_causal/package_causal_1.png"",""x"":407,""y"":397},{""src"":""https://test12345.live/images/causal_sequence/package_causal/package_causal_7.png"",""x"":407,""y"":548},{""src"":""https://test12345.live/images/causal_sequence/package_causal/package_causal_3.png"",""x"":558,""y"":397},{""src"":""https://test12345.live/images/causal_sequence/package_causal/package_causal_8.png"",""x"":558,""y"":548},{""src"":""https://test12345.live/images/causal_sequence/package_causal/package_causal_4.png"",""x"":709,""y"":397},{""src"":""https://test12345.live/images/causal_sequence/package_causal/package_causal_9.png"",""x"":709,""y"":548},{""src"":""https://test12345.live/images/causal_sequence/package_causal/package_causal_5.png"",""x"":860,""y"":397},{""src"":""https://test12345.live/images/causal_sequence/package_causal/package_causal_ten.png"",""x"":860,""y"":548}]","20",""
"","order","5","276122","0.0-5.0","E8B0A6E592254AF1BB3A758752E979C0","conditionC","","87719","[""semantic_sequence/using_technology_semantic/using_technology_semantic_6"",""semantic_sequence/using_technology_semantic/using_technology_semantic_3"",""semantic_sequence/using_technology_semantic/using_technology_semantic_4"",""semantic_sequence/using_technology_semantic/using_technology_semantic_1"",""semantic_sequence/using_technology_semantic/using_technology_semantic_2"",""semantic_sequence/using_technology_semantic/using_technology_semantic_9"",""semantic_sequence/using_technology_semantic/using_technology_semantic_8"",""semantic_sequence/using_technology_semantic/using_technology_semantic_7"",""semantic_sequence/using_technology_semantic/using_technology_semantic_5"",""semantic_sequence/using_technology_semantic/using_technology_semantic_ten""]","[{""src"":""https://test12345.live/images/semantic_sequence/using_technology_semantic/using_technology_semantic_1.png"",""x"":256,""y"":397,""move_time"":63762},{""src"":""https://test12345.live/images/semantic_sequence/using_technology_semantic/using_technology_semantic_2.png"",""x"":407,""y"":397,""move_time"":2241},{""src"":""https://test12345.live/images/semantic_sequence/using_technology_semantic/using_technology_semantic_3.png"",""x"":558,""y"":397,""move_time"":3579},{""src"":""https://test12345.live/images/semantic_sequence/using_technology_semantic/using_technology_semantic_4.png"",""x"":709,""y"":397,""move_time"":1321},{""src"":""https://test12345.live/images/semantic_sequence/using_technology_semantic/using_technology_semantic_5.png"",""x"":860,""y"":397,""move_time"":7362},{""src"":""https://test12345.live/images/semantic_sequence/using_technology_semantic/using_technology_semantic_6.png"",""x"":256,""y"":548,""move_time"":2094},{""src"":""https://test12345.live/images/semantic_sequence/using_technology_semantic/using_technology_semantic_7.png"",""x"":407,""y"":548,""move_time"":1789},{""src"":""https://test12345.live/images/semantic_sequence/using_technology_semantic/using_technology_semantic_8.png"",""x"":558,""y"":548,""move_time"":1472},{""src"":""https://test12345.live/images/semantic_sequence/using_technology_semantic/using_technology_semantic_9.png"",""x"":709,""y"":548,""move_time"":1481},{""src"":""https://test12345.live/images/semantic_sequence/using_technology_semantic/using_technology_semantic_ten.png"",""x"":860,""y"":548,""move_time"":1350}]","[{""src"":""https://test12345.live/images/semantic_sequence/using_technology_semantic/using_technology_semantic_1.png"",""x"":256,""y"":397},{""src"":""https://test12345.live/images/semantic_sequence/using_technology_semantic/using_technology_semantic_6.png"",""x"":256,""y"":548},{""src"":""https://test12345.live/images/semantic_sequence/using_technology_semantic/using_technology_semantic_2.png"",""x"":407,""y"":397},{""src"":""https://test12345.live/images/semantic_sequence/using_technology_semantic/using_technology_semantic_7.png"",""x"":407,""y"":548},{""src"":""https://test12345.live/images/semantic_sequence/using_technology_semantic/using_technology_semantic_3.png"",""x"":558,""y"":397},{""src"":""https://test12345.live/images/semantic_sequence/using_technology_semantic/using_technology_semantic_8.png"",""x"":558,""y"":548},{""src"":""https://test12345.live/images/semantic_sequence/using_technology_semantic/using_technology_semantic_4.png"",""x"":709,""y"":397},{""src"":""https://test12345.live/images/semantic_sequence/using_technology_semantic/using_technology_semantic_9.png"",""x"":709,""y"":548},{""src"":""https://test12345.live/images/semantic_sequence/using_technology_semantic/using_technology_semantic_5.png"",""x"":860,""y"":397},{""src"":""https://test12345.live/images/semantic_sequence/using_technology_semantic/using_technology_semantic_ten.png"",""x"":860,""y"":548}]","10",""
"","order","6","406565","0.0-6.0","E8B0A6E592254AF1BB3A758752E979C0","conditionC","","130443","[""schematic_sequence/hotel_scheme/hotel_scheme_1"",""schematic_sequence/hotel_scheme/hotel_scheme_3"",""schematic_sequence/hotel_scheme/hotel_scheme_ten"",""schematic_sequence/hotel_scheme/hotel_scheme_6"",""schematic_sequence/hotel_scheme/hotel_scheme_4"",""schematic_sequence/hotel_scheme/hotel_scheme_9"",""schematic_sequence/hotel_scheme/hotel_scheme_2"",""schematic_sequence/hotel_scheme/hotel_scheme_8"",""schematic_sequence/hotel_scheme/hotel_scheme_5"",""schematic_sequence/hotel_scheme/hotel_scheme_7""]","[{""src"":""https://test12345.live/images/schematic_sequence/hotel_scheme/hotel_scheme_1.png"",""x"":256,""y"":397,""move_time"":88146},{""src"":""https://test12345.live/images/schematic_sequence/hotel_scheme/hotel_scheme_3.png"",""x"":407,""y"":397,""move_time"":2553},{""src"":""https://test12345.live/images/schematic_sequence/hotel_scheme/hotel_scheme_4.png"",""x"":558,""y"":397,""move_time"":7188},{""src"":""https://test12345.live/images/schematic_sequence/hotel_scheme/hotel_scheme_4.png"",""x"":860,""y"":397,""move_time"":6703},{""src"":""https://test12345.live/images/schematic_sequence/hotel_scheme/hotel_scheme_3.png"",""x"":709,""y"":397,""move_time"":1483},{""src"":""https://test12345.live/images/schematic_sequence/hotel_scheme/hotel_scheme_2.png"",""x"":407,""y"":397,""move_time"":2103},{""src"":""https://test12345.live/images/schematic_sequence/hotel_scheme/hotel_scheme_3.png"",""x"":558,""y"":397,""move_time"":1607},{""src"":""https://test12345.live/images/schematic_sequence/hotel_scheme/hotel_scheme_4.png"",""x"":709,""y"":397,""move_time"":1773},{""src"":""https://test12345.live/images/schematic_sequence/hotel_scheme/hotel_scheme_5.png"",""x"":860,""y"":397,""move_time"":2884},{""src"":""https://test12345.live/images/schematic_sequence/hotel_scheme/hotel_scheme_6.png"",""x"":256,""y"":548,""move_time"":5847},{""src"":""https://test12345.live/images/schematic_sequence/hotel_scheme/hotel_scheme_7.png"",""x"":407,""y"":548,""move_time"":1678},{""src"":""https://test12345.live/images/schematic_sequence/hotel_scheme/hotel_scheme_8.png"",""x"":558,""y"":548,""move_time"":3612},{""src"":""https://test12345.live/images/schematic_sequence/hotel_scheme/hotel_scheme_9.png"",""x"":709,""y"":548,""move_time"":1668},{""src"":""https://test12345.live/images/schematic_sequence/hotel_scheme/hotel_scheme_ten.png"",""x"":860,""y"":548,""move_time"":1556}]","[{""src"":""https://test12345.live/images/schematic_sequence/hotel_scheme/hotel_scheme_1.png"",""x"":256,""y"":397},{""src"":""https://test12345.live/images/schematic_sequence/hotel_scheme/hotel_scheme_6.png"",""x"":256,""y"":548},{""src"":""https://test12345.live/images/schematic_sequence/hotel_scheme/hotel_scheme_2.png"",""x"":407,""y"":397},{""src"":""https://test12345.live/images/schematic_sequence/hotel_scheme/hotel_scheme_7.png"",""x"":407,""y"":548},{""src"":""https://test12345.live/images/schematic_sequence/hotel_scheme/hotel_scheme_3.png"",""x"":558,""y"":397},{""src"":""https://test12345.live/images/schematic_sequence/hotel_scheme/hotel_scheme_8.png"",""x"":558,""y"":548},{""src"":""https://test12345.live/images/schematic_sequence/hotel_scheme/hotel_scheme_4.png"",""x"":709,""y"":397},{""src"":""https://test12345.live/images/schematic_sequence/hotel_scheme/hotel_scheme_9.png"",""x"":709,""y"":548},{""src"":""https://test12345.live/images/schematic_sequence/hotel_scheme/hotel_scheme_5.png"",""x"":860,""y"":397},{""src"":""https://test12345.live/images/schematic_sequence/hotel_scheme/hotel_scheme_ten.png"",""x"":860,""y"":548}]","14",""
"","order","7","521310","0.0-7.0","E8B0A6E592254AF1BB3A758752E979C0","conditionC","","114744","[""schematic_sequence/supermarket_scheme/supermarket_scheme_3"",""schematic_sequence/supermarket_scheme/supermarket_scheme_2"",""schematic_sequence/supermarket_scheme/supermarket_scheme_4"",""schematic_sequence/supermarket_scheme/supermarket_scheme_9"",""schematic_sequence/supermarket_scheme/supermarket_scheme_1"",""schematic_sequence/supermarket_scheme/supermarket_scheme_5"",""schematic_sequence/supermarket_scheme/supermarket_scheme_8"",""schematic_sequence/supermarket_scheme/supermarket_scheme_6"",""schematic_sequence/supermarket_scheme/supermarket_scheme_7"",""schematic_sequence/supermarket_scheme/supermarket_scheme_ten""]","[{""src"":""https://test12345.live/images/schematic_sequence/supermarket_scheme/supermarket_scheme_1.png"",""x"":256,""y"":397,""move_time"":65263},{""src"":""https://test12345.live/images/schematic_sequence/supermarket_scheme/supermarket_scheme_3.png"",""x"":407,""y"":397,""move_time"":13665},{""src"":""https://test12345.live/images/schematic_sequence/supermarket_scheme/supermarket_scheme_2.png"",""x"":558,""y"":397,""move_time"":12161},{""src"":""https://test12345.live/images/schematic_sequence/supermarket_scheme/supermarket_scheme_4.png"",""x"":709,""y"":397,""move_time"":8156},{""src"":""https://test12345.live/images/schematic_sequence/supermarket_scheme/supermarket_scheme_5.png"",""x"":860,""y"":397,""move_time"":3011},{""src"":""https://test12345.live/images/schematic_sequence/supermarket_scheme/supermarket_scheme_6.png"",""x"":256,""y"":548,""move_time"":3907},{""src"":""https://test12345.live/images/schematic_sequence/supermarket_scheme/supermarket_scheme_8.png"",""x"":407,""y"":548,""move_time"":2914},{""src"":""https://test12345.live/images/schematic_sequence/supermarket_scheme/supermarket_scheme_7.png"",""x"":558,""y"":548,""move_time"":1552},{""src"":""https://test12345.live/images/schematic_sequence/supermarket_scheme/supermarket_scheme_ten.png"",""x"":709,""y"":548,""move_time"":1559},{""src"":""https://test12345.live/images/schematic_sequence/supermarket_scheme/supermarket_scheme_9.png"",""x"":860,""y"":548,""move_time"":1475}]","[{""src"":""https://test12345.live/images/schematic_sequence/supermarket_scheme/supermarket_scheme_1.png"",""x"":256,""y"":397},{""src"":""https://test12345.live/images/schematic_sequence/supermarket_scheme/supermarket_scheme_6.png"",""x"":256,""y"":548},{""src"":""https://test12345.live/images/schematic_sequence/supermarket_scheme/supermarket_scheme_3.png"",""x"":407,""y"":397},{""src"":""https://test12345.live/images/schematic_sequence/supermarket_scheme/supermarket_scheme_8.png"",""x"":407,""y"":548},{""src"":""https://test12345.live/images/schematic_sequence/supermarket_scheme/supermarket_scheme_2.png"",""x"":558,""y"":397},{""src"":""https://test12345.live/images/schematic_sequence/supermarket_scheme/supermarket_scheme_7.png"",""x"":558,""y"":548},{""src"":""https://test12345.live/images/schematic_sequence/supermarket_scheme/supermarket_scheme_4.png"",""x"":709,""y"":397},{""src"":""https://test12345.live/images/schematic_sequence/supermarket_scheme/supermarket_scheme_ten.png"",""x"":709,""y"":548},{""src"":""https://test12345.live/images/schematic_sequence/supermarket_scheme/supermarket_scheme_5.png"",""x"":860,""y"":397},{""src"":""https://test12345.live/images/schematic_sequence/supermarket_scheme/supermarket_scheme_9.png"",""x"":860,""y"":548}]","10",""
"","order","8","554910","0.0-8.0","E8B0A6E592254AF1BB3A758752E979C0","conditionC","","33600","[""semantic_sequence/kitchen_operations_semantic/kitchen_operations_semantic_5"",""semantic_sequence/kitchen_operations_semantic/kitchen_operations_semantic_1"",""semantic_sequence/kitchen_operations_semantic/kitchen_operations_semantic_2"",""semantic_sequence/kitchen_operations_semantic/kitchen_operations_semantic_7"",""semantic_sequence/kitchen_operations_semantic/kitchen_operations_semantic_ten"",""semantic_sequence/kitchen_operations_semantic/kitchen_operations_semantic_3"",""semantic_sequence/kitchen_operations_semantic/kitchen_operations_semantic_6"",""semantic_sequence/kitchen_operations_semantic/kitchen_operations_semantic_8"",""semantic_sequence/kitchen_operations_semantic/kitchen_operations_semantic_4"",""semantic_sequence/kitchen_operations_semantic/kitchen_operations_semantic_9""]","[{""src"":""https://test12345.live/images/semantic_sequence/kitchen_operations_semantic/kitchen_operations_semantic_1.png"",""x"":256,""y"":397,""move_time"":7321},{""src"":""https://test12345.live/images/semantic_sequence/kitchen_operations_semantic/kitchen_operations_semantic_2.png"",""x"":407,""y"":397,""move_time"":1404},{""src"":""https://test12345.live/images/semantic_sequence/kitchen_operations_semantic/kitchen_operations_semantic_3.png"",""x"":558,""y"":397,""move_time"":4401},{""src"":""https://test12345.live/images/semantic_sequence/kitchen_operations_semantic/kitchen_operations_semantic_4.png"",""x"":709,""y"":397,""move_time"":1380},{""src"":""https://test12345.live/images/semantic_sequence/kitchen_operations_semantic/kitchen_operations_semantic_5.png"",""x"":860,""y"":397,""move_time"":4624},{""src"":""https://test12345.live/images/semantic_sequence/kitchen_operations_semantic/kitchen_operations_semantic_6.png"",""x"":256,""y"":548,""move_time"":4815},{""src"":""https://test12345.live/images/semantic_sequence/kitchen_operations_semantic/kitchen_operations_semantic_7.png"",""x"":407,""y"":548,""move_time"":3403},{""src"":""https://test12345.live/images/semantic_sequence/kitchen_operations_semantic/kitchen_operations_semantic_8.png"",""x"":558,""y"":548,""move_time"":1731},{""src"":""https://test12345.live/images/semantic_sequence/kitchen_operations_semantic/kitchen_operations_semantic_9.png"",""x"":709,""y"":548,""move_time"":1443},{""src"":""https://test12345.live/images/semantic_sequence/kitchen_operations_semantic/kitchen_operations_semantic_ten.png"",""x"":860,""y"":548,""move_time"":1774}]","[{""src"":""https://test12345.live/images/semantic_sequence/kitchen_operations_semantic/kitchen_operations_semantic_1.png"",""x"":256,""y"":397},{""src"":""https://test12345.live/images/semantic_sequence/kitchen_operations_semantic/kitchen_operations_semantic_6.png"",""x"":256,""y"":548},{""src"":""https://test12345.live/images/semantic_sequence/kitchen_operations_semantic/kitchen_operations_semantic_2.png"",""x"":407,""y"":397},{""src"":""https://test12345.live/images/semantic_sequence/kitchen_operations_semantic/kitchen_operations_semantic_7.png"",""x"":407,""y"":548},{""src"":""https://test12345.live/images/semantic_sequence/kitchen_operations_semantic/kitchen_operations_semantic_3.png"",""x"":558,""y"":397},{""src"":""https://test12345.live/images/semantic_sequence/kitchen_operations_semantic/kitchen_operations_semantic_8.png"",""x"":558,""y"":548},{""src"":""https://test12345.live/images/semantic_sequence/kitchen_operations_semantic/kitchen_operations_semantic_4.png"",""x"":709,""y"":397},{""src"":""https://test12345.live/images/semantic_sequence/kitchen_operations_semantic/kitchen_operations_semantic_9.png"",""x"":709,""y"":548},{""src"":""https://test12345.live/images/semantic_sequence/kitchen_operations_semantic/kitchen_operations_semantic_5.png"",""x"":860,""y"":397},{""src"":""https://test12345.live/images/semantic_sequence/kitchen_operations_semantic/kitchen_operations_semantic_ten.png"",""x"":860,""y"":548}]","10",""
"","order","9","1030104","0.0-9.0","E8B0A6E592254AF1BB3A758752E979C0","conditionC","","475194","[""semantic_sequence/creative_activities_semantic/creative_activities_semantic_9"",""semantic_sequence/creative_activities_semantic/creative_activities_semantic_2"",""semantic_sequence/creative_activities_semantic/creative_activities_semantic_3"",""semantic_sequence/creative_activities_semantic/creative_activities_semantic_5"",""semantic_sequence/creative_activities_semantic/creative_activities_semantic_ten"",""semantic_sequence/creative_activities_semantic/creative_activities_semantic_6"",""semantic_sequence/creative_activities_semantic/creative_activities_semantic_4"",""semantic_sequence/creative_activities_semantic/creative_activities_semantic_1"",""semantic_sequence/creative_activities_semantic/creative_activities_semantic_7"",""semantic_sequence/creative_activities_semantic/creative_activities_semantic_8""]","[{""src"":""https://test12345.live/images/semantic_sequence/creative_activities_semantic/creative_activities_semantic_1.png"",""x"":256,""y"":397,""move_time"":442487},{""src"":""https://test12345.live/images/semantic_sequence/creative_activities_semantic/creative_activities_semantic_2.png"",""x"":407,""y"":397,""move_time"":5280},{""src"":""https://test12345.live/images/semantic_sequence/creative_activities_semantic/creative_activities_semantic_3.png"",""x"":558,""y"":397,""move_time"":2253},{""src"":""https://test12345.live/images/semantic_sequence/creative_activities_semantic/creative_activities_semantic_4.png"",""x"":709,""y"":397,""move_time"":3838},{""src"":""https://test12345.live/images/semantic_sequence/creative_activities_semantic/creative_activities_semantic_5.png"",""x"":860,""y"":397,""move_time"":10152},{""src"":""https://test12345.live/images/semantic_sequence/creative_activities_semantic/creative_activities_semantic_6.png"",""x"":256,""y"":548,""move_time"":2128},{""src"":""https://test12345.live/images/semantic_sequence/creative_activities_semantic/creative_activities_semantic_7.png"",""x"":407,""y"":548,""move_time"":1733},{""src"":""https://test12345.live/images/semantic_sequence/creative_activities_semantic/creative_activities_semantic_8.png"",""x"":558,""y"":548,""move_time"":2094},{""src"":""https://test12345.live/images/semantic_sequence/creative_activities_semantic/creative_activities_semantic_9.png"",""x"":709,""y"":548,""move_time"":2132},{""src"":""https://test12345.live/images/semantic_sequence/creative_activities_semantic/creative_activities_semantic_ten.png"",""x"":860,""y"":548,""move_time"":1647}]","[{""src"":""https://test12345.live/images/semantic_sequence/creative_activities_semantic/creative_activities_semantic_1.png"",""x"":256,""y"":397},{""src"":""https://test12345.live/images/semantic_sequence/creative_activities_semantic/creative_activities_semantic_6.png"",""x"":256,""y"":548},{""src"":""https://test12345.live/images/semantic_sequence/creative_activities_semantic/creative_activities_semantic_2.png"",""x"":407,""y"":397},{""src"":""https://test12345.live/images/semantic_sequence/creative_activities_semantic/creative_activities_semantic_7.png"",""x"":407,""y"":548},{""src"":""https://test12345.live/images/semantic_sequence/creative_activities_semantic/creative_activities_semantic_3.png"",""x"":558,""y"":397},{""src"":""https://test12345.live/images/semantic_sequence/creative_activities_semantic/creative_activities_semantic_8.png"",""x"":558,""y"":548},{""src"":""https://test12345.live/images/semantic_sequence/creative_activities_semantic/creative_activities_semantic_4.png"",""x"":709,""y"":397},{""src"":""https://test12345.live/images/semantic_sequence/creative_activities_semantic/creative_activities_semantic_9.png"",""x"":709,""y"":548},{""src"":""https://test12345.live/images/semantic_sequence/creative_activities_semantic/creative_activities_semantic_5.png"",""x"":860,""y"":397},{""src"":""https://test12345.live/images/semantic_sequence/creative_activities_semantic/creative_activities_semantic_ten.png"",""x"":860,""y"":548}]","10",""
"","order","10","1159076","0.0-10.0","E8B0A6E592254AF1BB3A758752E979C0","conditionC","","128971","[""causal_sequence/coin_causal/coin_causal_ten"",""causal_sequence/coin_causal/coin_causal_8"",""causal_sequence/coin_causal/coin_causal_5"",""causal_sequence/coin_causal/coin_causal_7"",""causal_sequence/coin_causal/coin_causal_6"",""causal_sequence/coin_causal/coin_causal_9"",""causal_sequence/coin_causal/coin_causal_4"",""causal_sequence/coin_causal/coin_causal_1"",""causal_sequence/coin_causal/coin_causal_2"",""causal_sequence/coin_causal/coin_causal_3""]","[{""src"":""https://test12345.live/images/causal_sequence/coin_causal/coin_causal_1.png"",""x"":256,""y"":397,""move_time"":97090},{""src"":""https://test12345.live/images/causal_sequence/coin_causal/coin_causal_2.png"",""x"":407,""y"":397,""move_time"":2354},{""src"":""https://test12345.live/images/causal_sequence/coin_causal/coin_causal_3.png"",""x"":558,""y"":397,""move_time"":3161},{""src"":""https://test12345.live/images/causal_sequence/coin_causal/coin_causal_4.png"",""x"":709,""y"":397,""move_time"":7776},{""src"":""https://test12345.live/images/causal_sequence/coin_causal/coin_causal_5.png"",""x"":860,""y"":397,""move_time"":3815},{""src"":""https://test12345.live/images/causal_sequence/coin_causal/coin_causal_6.png"",""x"":256,""y"":548,""move_time"":2261},{""src"":""https://test12345.live/images/causal_sequence/coin_causal/coin_causal_7.png"",""x"":407,""y"":548,""move_time"":6132},{""src"":""https://test12345.live/images/causal_sequence/coin_causal/coin_causal_9.png"",""x"":558,""y"":548,""move_time"":1866},{""src"":""https://test12345.live/images/causal_sequence/coin_causal/coin_causal_8.png"",""x"":709,""y"":548,""move_time"":1836},{""src"":""https://test12345.live/images/causal_sequence/coin_causal/coin_causal_ten.png"",""x"":860,""y"":548,""move_time"":1945}]","[{""src"":""https://test12345.live/images/causal_sequence/coin_causal/coin_causal_1.png"",""x"":256,""y"":397},{""src"":""https://test12345.live/images/causal_sequence/coin_causal/coin_causal_6.png"",""x"":256,""y"":548},{""src"":""https://test12345.live/images/causal_sequence/coin_causal/coin_causal_2.png"",""x"":407,""y"":397},{""src"":""https://test12345.live/images/causal_sequence/coin_causal/coin_causal_7.png"",""x"":407,""y"":548},{""src"":""https://test12345.live/images/causal_sequence/coin_causal/coin_causal_3.png"",""x"":558,""y"":397},{""src"":""https://test12345.live/images/causal_sequence/coin_causal/coin_causal_9.png"",""x"":558,""y"":548},{""src"":""https://test12345.live/images/causal_sequence/coin_causal/coin_causal_4.png"",""x"":709,""y"":397},{""src"":""https://test12345.live/images/causal_sequence/coin_causal/coin_causal_8.png"",""x"":709,""y"":548},{""src"":""https://test12345.live/images/causal_sequence/coin_causal/coin_causal_5.png"",""x"":860,""y"":397},{""src"":""https://test12345.live/images/causal_sequence/coin_causal/coin_causal_ten.png"",""x"":860,""y"":548}]","10",""
"","order","11","1307976","0.0-11.0","E8B0A6E592254AF1BB3A758752E979C0","conditionC","","148900","[""schematic_sequence/interview_scheme/interview_scheme_8"",""schematic_sequence/interview_scheme/interview_scheme_6"",""schematic_sequence/interview_scheme/interview_scheme_2"",""schematic_sequence/interview_scheme/interview_scheme_ten"",""schematic_sequence/interview_scheme/interview_scheme_1"",""schematic_sequence/interview_scheme/interview_scheme_7"",""schematic_sequence/interview_scheme/interview_scheme_9"",""schematic_sequence/interview_scheme/interview_scheme_5"",""schematic_sequence/interview_scheme/interview_scheme_3"",""schematic_sequence/interview_scheme/interview_scheme_4""]","[{""src"":""https://test12345.live/images/schematic_sequence/interview_scheme/interview_scheme_2.png"",""x"":256,""y"":397,""move_time"":74679},{""src"":""https://test12345.live/images/schematic_sequence/interview_scheme/interview_scheme_3.png"",""x"":709,""y"":200,""move_time"":18450},{""src"":""https://test12345.live/images/schematic_sequence/interview_scheme/interview_scheme_2.png"",""x"":407,""y"":397,""move_time"":1835},{""src"":""https://test12345.live/images/schematic_sequence/interview_scheme/interview_scheme_1.png"",""x"":256,""y"":397,""move_time"":2039},{""src"":""https://test12345.live/images/schematic_sequence/interview_scheme/interview_scheme_3.png"",""x"":558,""y"":397,""move_time"":6701},{""src"":""https://test12345.live/images/schematic_sequence/interview_scheme/interview_scheme_4.png"",""x"":709,""y"":397,""move_time"":2046},{""src"":""https://test12345.live/images/schematic_sequence/interview_scheme/interview_scheme_5.png"",""x"":860,""y"":397,""move_time"":27517},{""src"":""https://test12345.live/images/schematic_sequence/interview_scheme/interview_scheme_7.png"",""x"":256,""y"":548,""move_time"":1764},{""src"":""https://test12345.live/images/schematic_sequence/interview_scheme/interview_scheme_6.png"",""x"":407,""y"":548,""move_time"":7722},{""src"":""https://test12345.live/images/schematic_sequence/interview_scheme/interview_scheme_9.png"",""x"":558,""y"":548,""move_time"":1475},{""src"":""https://test12345.live/images/schematic_sequence/interview_scheme/interview_scheme_8.png"",""x"":709,""y"":548,""move_time"":1710},{""src"":""https://test12345.live/images/schematic_sequence/interview_scheme/interview_scheme_ten.png"",""x"":860,""y"":548,""move_time"":1534}]","[{""src"":""https://test12345.live/images/schematic_sequence/interview_scheme/interview_scheme_1.png"",""x"":256,""y"":397},{""src"":""https://test12345.live/images/schematic_sequence/interview_scheme/interview_scheme_7.png"",""x"":256,""y"":548},{""src"":""https://test12345.live/images/schematic_sequence/interview_scheme/interview_scheme_2.png"",""x"":407,""y"":397},{""src"":""https://test12345.live/images/schematic_sequence/interview_scheme/interview_scheme_6.png"",""x"":407,""y"":548},{""src"":""https://test12345.live/images/schematic_sequence/interview_scheme/interview_scheme_3.png"",""x"":558,""y"":397},{""src"":""https://test12345.live/images/schematic_sequence/interview_scheme/interview_scheme_9.png"",""x"":558,""y"":548},{""src"":""https://test12345.live/images/schematic_sequence/interview_scheme/interview_scheme_4.png"",""x"":709,""y"":397},{""src"":""https://test12345.live/images/schematic_sequence/interview_scheme/interview_scheme_8.png"",""x"":709,""y"":548},{""src"":""https://test12345.live/images/schematic_sequence/interview_scheme/interview_scheme_5.png"",""x"":860,""y"":397},{""src"":""https://test12345.live/images/schematic_sequence/interview_scheme/interview_scheme_ten.png"",""x"":860,""y"":548}]","12",""
"","order","12","1430253","0.0-12.0","E8B0A6E592254AF1BB3A758752E979C0","conditionC","","122276","[""semantic_sequence/self_care_activities_semantic/self_care_activities_semantic_9"",""semantic_sequence/self_care_activities_semantic/self_care_activities_semantic_1"",""semantic_sequence/self_care_activities_semantic/self_care_activities_semantic_8"",""semantic_sequence/self_care_activities_semantic/self_care_activities_semantic_ten"",""semantic_sequence/self_care_activities_semantic/self_care_activities_semantic_2"",""semantic_sequence/self_care_activities_semantic/self_care_activities_semantic_6"",""semantic_sequence/self_care_activities_semantic/self_care_activities_semantic_7"",""semantic_sequence/self_care_activities_semantic/self_care_activities_semantic_3"",""semantic_sequence/self_care_activities_semantic/semantic_self_care_activities_semantic_9"",""semantic_sequence/self_care_activities_semantic/self_care_activities_semantic_4""]","[{""src"":""https://test12345.live/images/semantic_sequence/self_care_activities_semantic/self_care_activities_semantic_1.png"",""x"":256,""y"":397,""move_time"":21789},{""src"":""https://test12345.live/images/semantic_sequence/self_care_activities_semantic/self_care_activities_semantic_2.png"",""x"":407,""y"":397,""move_time"":2869},{""src"":""https://test12345.live/images/semantic_sequence/self_care_activities_semantic/self_care_activities_semantic_3.png"",""x"":558,""y"":397,""move_time"":2838},{""src"":""https://test12345.live/images/semantic_sequence/self_care_activities_semantic/self_care_activities_semantic_4.png"",""x"":709,""y"":397,""move_time"":2132},{""src"":""https://test12345.live/images/semantic_sequence/self_care_activities_semantic/self_care_activities_semantic_6.png"",""x"":256,""y"":548,""move_time"":48897},{""src"":""https://test12345.live/images/semantic_sequence/self_care_activities_semantic/self_care_activities_semantic_7.png"",""x"":407,""y"":548,""move_time"":1365},{""src"":""https://test12345.live/images/semantic_sequence/self_care_activities_semantic/self_care_activities_semantic_ten.png"",""x"":860,""y"":548,""move_time"":4155},{""src"":""https://test12345.live/images/semantic_sequence/self_care_activities_semantic/semantic_self_care_activities_semantic_9.png"",""x"":709,""y"":548,""move_time"":2738},{""src"":""https://test12345.live/images/semantic_sequence/self_care_activities_semantic/self_care_activities_semantic_8.png"",""x"":558,""y"":548,""move_time"":6718},{""src"":""https://test12345.live/images/semantic_sequence/self_care_activities_semantic/self_care_activities_semantic_9.png"",""x"":860,""y"":397,""move_time"":19374}]","[{""src"":""https://test12345.live/images/semantic_sequence/self_care_activities_semantic/self_care_activities_semantic_1.png"",""x"":256,""y"":397},{""src"":""https://test12345.live/images/semantic_sequence/self_care_activities_semantic/self_care_activities_semantic_6.png"",""x"":256,""y"":548},{""src"":""https://test12345.live/images/semantic_sequence/self_care_activities_semantic/self_care_activities_semantic_2.png"",""x"":407,""y"":397},{""src"":""https://test12345.live/images/semantic_sequence/self_care_activities_semantic/self_care_activities_semantic_7.png"",""x"":407,""y"":548},{""src"":""https://test12345.live/images/semantic_sequence/self_care_activities_semantic/self_care_activities_semantic_3.png"",""x"":558,""y"":397},{""src"":""https://test12345.live/images/semantic_sequence/self_care_activities_semantic/self_care_activities_semantic_8.png"",""x"":558,""y"":548},{""src"":""https://test12345.live/images/semantic_sequence/self_care_activities_semantic/self_care_activities_semantic_4.png"",""x"":709,""y"":397},{""src"":""https://test12345.live/images/semantic_sequence/self_care_activities_semantic/semantic_self_care_activities_semantic_9.png"",""x"":709,""y"":548},{""src"":""https://test12345.live/images/semantic_sequence/self_care_activities_semantic/self_care_activities_semantic_9.png"",""x"":860,""y"":397},{""src"":""https://test12345.live/images/semantic_sequence/self_care_activities_semantic/self_care_activities_semantic_ten.png"",""x"":860,""y"":548}]","10",""
"","order","13","1603545","0.0-13.0","E8B0A6E592254AF1BB3A758752E979C0","conditionC","","173292","[""semantic_sequence/housework_semantic/housework_semantic_ten"",""semantic_sequence/housework_semantic/housework_semantic_3"",""semantic_sequence/housework_semantic/housework_semantic_6"",""semantic_sequence/housework_semantic/housework_semantic_1"",""semantic_sequence/housework_semantic/housework_semantic_7"",""semantic_sequence/housework_semantic/housework_semantic_2"",""semantic_sequence/housework_semantic/housework_semantic_8"",""semantic_sequence/housework_semantic/housework_semantic_4"",""semantic_sequence/housework_semantic/housework_semantic_5"",""semantic_sequence/housework_semantic/housework_semantic_9""]","[{""src"":""https://test12345.live/images/semantic_sequence/housework_semantic/housework_semantic_ten.png"",""x"":256,""y"":397,""move_time"":86811},{""src"":""https://test12345.live/images/semantic_sequence/housework_semantic/housework_semantic_7.png"",""x"":860,""y"":49,""move_time"":18825},{""src"":""https://test12345.live/images/semantic_sequence/housework_semantic/housework_semantic_9.png"",""x"":860,""y"":548,""move_time"":10766},{""src"":""https://test12345.live/images/semantic_sequence/housework_semantic/housework_semantic_1.png"",""x"":558,""y"":397,""move_time"":6885},{""src"":""https://test12345.live/images/semantic_sequence/housework_semantic/housework_semantic_5.png"",""x"":709,""y"":397,""move_time"":1375},{""src"":""https://test12345.live/images/semantic_sequence/housework_semantic/housework_semantic_8.png"",""x"":709,""y"":548,""move_time"":4520},{""src"":""https://test12345.live/images/semantic_sequence/housework_semantic/housework_semantic_4.png"",""x"":558,""y"":548,""move_time"":9882},{""src"":""https://test12345.live/images/semantic_sequence/housework_semantic/housework_semantic_6.png"",""x"":407,""y"":397,""move_time"":17399},{""src"":""https://test12345.live/images/semantic_sequence/housework_semantic/housework_semantic_3.png"",""x"":860,""y"":397,""move_time"":4871},{""src"":""https://test12345.live/images/semantic_sequence/housework_semantic/housework_semantic_7.png"",""x"":407,""y"":548,""move_time"":8703},{""src"":""https://test12345.live/images/semantic_sequence/housework_semantic/housework_semantic_2.png"",""x"":256,""y"":548,""move_time"":1679}]","[{""src"":""https://test12345.live/images/semantic_sequence/housework_semantic/housework_semantic_ten.png"",""x"":256,""y"":397},{""src"":""https://test12345.live/images/semantic_sequence/housework_semantic/housework_semantic_2.png"",""x"":256,""y"":548},{""src"":""https://test12345.live/images/semantic_sequence/housework_semantic/housework_semantic_6.png"",""x"":407,""y"":397},{""src"":""https://test12345.live/images/semantic_sequence/housework_semantic/housework_semantic_7.png"",""x"":407,""y"":548},{""src"":""https://test12345.live/images/semantic_sequence/housework_semantic/housework_semantic_1.png"",""x"":558,""y"":397},{""src"":""https://test12345.live/images/semantic_sequence/housework_semantic/housework_semantic_4.png"",""x"":558,""y"":548},{""src"":""https://test12345.live/images/semantic_sequence/housework_semantic/housework_semantic_5.png"",""x"":709,""y"":397},{""src"":""https://test12345.live/images/semantic_sequence/housework_semantic/housework_semantic_8.png"",""x"":709,""y"":548},{""src"":""https://test12345.live/images/semantic_sequence/housework_semantic/housework_semantic_3.png"",""x"":860,""y"":397},{""src"":""https://test12345.live/images/semantic_sequence/housework_semantic/housework_semantic_9.png"",""x"":860,""y"":548}]","11",""
"","order","14","1708213","0.0-14.0","E8B0A6E592254AF1BB3A758752E979C0","conditionC","","104667","[""causal_sequence/dog_causal/dog_causal_9"",""causal_sequence/dog_causal/dog_causal_3"",""causal_sequence/dog_causal/dog_causal_6"",""causal_sequence/dog_causal/dog_causal_2"",""causal_sequence/dog_causal/dog_causal_7"",""causal_sequence/dog_causal/dog_causal_8"",""causal_sequence/dog_causal/dog_causal_ten"",""causal_sequence/dog_causal/dog_causal_4"",""causal_sequence/dog_causal/dog_causal_5"",""causal_sequence/dog_causal/dog_causal_1""]","[{""src"":""https://test12345.live/images/causal_sequence/dog_causal/dog_causal_1.png"",""x"":256,""y"":397,""move_time"":70846},{""src"":""https://test12345.live/images/causal_sequence/dog_causal/dog_causal_2.png"",""x"":407,""y"":397,""move_time"":3306},{""src"":""https://test12345.live/images/causal_sequence/dog_causal/dog_causal_3.png"",""x"":558,""y"":397,""move_time"":3950},{""src"":""https://test12345.live/images/causal_sequence/dog_causal/dog_causal_4.png"",""x"":709,""y"":397,""move_time"":10104},{""src"":""https://test12345.live/images/causal_sequence/dog_causal/dog_causal_5.png"",""x"":860,""y"":397,""move_time"":3688},{""src"":""https://test12345.live/images/causal_sequence/dog_causal/dog_causal_6.png"",""x"":256,""y"":548,""move_time"":2782},{""src"":""https://test12345.live/images/causal_sequence/dog_causal/dog_causal_7.png"",""x"":407,""y"":548,""move_time"":1982},{""src"":""https://test12345.live/images/causal_sequence/dog_causal/dog_causal_8.png"",""x"":558,""y"":548,""move_time"":2291},{""src"":""https://test12345.live/images/causal_sequence/dog_causal/dog_causal_9.png"",""x"":709,""y"":548,""move_time"":1872},{""src"":""https://test12345.live/images/causal_sequence/dog_causal/dog_causal_ten.png"",""x"":860,""y"":548,""move_time"":1978}]","[{""src"":""https://test12345.live/images/causal_sequence/dog_causal/dog_causal_1.png"",""x"":256,""y"":397},{""src"":""https://test12345.live/images/causal_sequence/dog_causal/dog_causal_6.png"",""x"":256,""y"":548},{""src"":""https://test12345.live/images/causal_sequence/dog_causal/dog_causal_2.png"",""x"":407,""y"":397},{""src"":""https://test12345.live/images/causal_sequence/dog_causal/dog_causal_7.png"",""x"":407,""y"":548},{""src"":""https://test12345.live/images/causal_sequence/dog_causal/dog_causal_3.png"",""x"":558,""y"":397},{""src"":""https://test12345.live/images/causal_sequence/dog_causal/dog_causal_8.png"",""x"":558,""y"":548},{""src"":""https://test12345.live/images/causal_sequence/dog_causal/dog_causal_4.png"",""x"":709,""y"":397},{""src"":""https://test12345.live/images/causal_sequence/dog_causal/dog_causal_9.png"",""x"":709,""y"":548},{""src"":""https://test12345.live/images/causal_sequence/dog_causal/dog_causal_5.png"",""x"":860,""y"":397},{""src"":""https://test12345.live/images/causal_sequence/dog_causal/dog_causal_ten.png"",""x"":860,""y"":548}]","10",""
"","order","15","1828637","0.0-15.0","E8B0A6E592254AF1BB3A758752E979C0","conditionC","","120424","[""schematic_sequence/flight_scheme/flight_scheme_5"",""schematic_sequence/flight_scheme/flight_scheme_8"",""schematic_sequence/flight_scheme/flight_scheme_1"",""schematic_sequence/flight_scheme/flight_scheme_2"",""schematic_sequence/flight_scheme/flight_scheme_6"",""schematic_sequence/flight_scheme/flight_scheme_7"",""schematic_sequence/flight_scheme/flight_scheme_9"",""schematic_sequence/flight_scheme/flight_scheme_4"",""schematic_sequence/flight_scheme/flight_scheme_ten"",""schematic_sequence/flight_scheme/flight_scheme_3""]","[{""src"":""https://test12345.live/images/schematic_sequence/flight_scheme/flight_scheme_1.png"",""x"":256,""y"":397,""move_time"":57752},{""src"":""https://test12345.live/images/schematic_sequence/flight_scheme/flight_scheme_3.png"",""x"":407,""y"":397,""move_time"":3041},{""src"":""https://test12345.live/images/schematic_sequence/flight_scheme/flight_scheme_5.png"",""x"":558,""y"":397,""move_time"":2524},{""src"":""https://test12345.live/images/schematic_sequence/flight_scheme/flight_scheme_5.png"",""x"":709,""y"":397,""move_time"":12617},{""src"":""https://test12345.live/images/schematic_sequence/flight_scheme/flight_scheme_3.png"",""x"":558,""y"":397,""move_time"":1537},{""src"":""https://test12345.live/images/schematic_sequence/flight_scheme/flight_scheme_2.png"",""x"":407,""y"":397,""move_time"":2640},{""src"":""https://test12345.live/images/schematic_sequence/flight_scheme/flight_scheme_5.png"",""x"":860,""y"":397,""move_time"":11788},{""src"":""https://test12345.live/images/schematic_sequence/flight_scheme/flight_scheme_4.png"",""x"":709,""y"":397,""move_time"":4328},{""src"":""https://test12345.live/images/schematic_sequence/flight_scheme/flight_scheme_7.png"",""x"":256,""y"":548,""move_time"":6419},{""src"":""https://test12345.live/images/schematic_sequence/flight_scheme/flight_scheme_6.png"",""x"":407,""y"":548,""move_time"":3320},{""src"":""https://test12345.live/images/schematic_sequence/flight_scheme/flight_scheme_9.png"",""x"":558,""y"":548,""move_time"":8563},{""src"":""https://test12345.live/images/schematic_sequence/flight_scheme/flight_scheme_8.png"",""x"":709,""y"":548,""move_time"":3703},{""src"":""https://test12345.live/images/schematic_sequence/flight_scheme/flight_scheme_ten.png"",""x"":860,""y"":548,""move_time"":1200}]","[{""src"":""https://test12345.live/images/schematic_sequence/flight_scheme/flight_scheme_1.png"",""x"":256,""y"":397},{""src"":""https://test12345.live/images/schematic_sequence/flight_scheme/flight_scheme_7.png"",""x"":256,""y"":548},{""src"":""https://test12345.live/images/schematic_sequence/flight_scheme/flight_scheme_2.png"",""x"":407,""y"":397},{""src"":""https://test12345.live/images/schematic_sequence/flight_scheme/flight_scheme_6.png"",""x"":407,""y"":548},{""src"":""https://test12345.live/images/schematic_sequence/flight_scheme/flight_scheme_3.png"",""x"":558,""y"":397},{""src"":""https://test12345.live/images/schematic_sequence/flight_scheme/flight_scheme_9.png"",""x"":558,""y"":548},{""src"":""https://test12345.live/images/schematic_sequence/flight_scheme/flight_scheme_4.png"",""x"":709,""y"":397},{""src"":""https://test12345.live/images/schematic_sequence/flight_scheme/flight_scheme_8.png"",""x"":709,""y"":548},{""src"":""https://test12345.live/images/schematic_sequence/flight_scheme/flight_scheme_5.png"",""x"":860,""y"":397},{""src"":""https://test12345.live/images/schematic_sequence/flight_scheme/flight_scheme_ten.png"",""x"":860,""y"":548}]","13",""
"","order","16","1898059","0.0-16.0","E8B0A6E592254AF1BB3A758752E979C0","conditionC","","69422","[""semantic_sequence/redecorating_a_house_semantic/redecorating_a_house_semantic_1"",""semantic_sequence/redecorating_a_house_semantic/redecorating_a_house_semantic_7"",""semantic_sequence/redecorating_a_house_semantic/redecorating_a_house_semantic_3"",""semantic_sequence/redecorating_a_house_semantic/redecorating_a_house_semantic_9"",""semantic_sequence/redecorating_a_house_semantic/redecorating_a_house_semantic_4"",""semantic_sequence/redecorating_a_house_semantic/redecorating_a_house_semantic_8"",""semantic_sequence/redecorating_a_house_semantic/redecorating_a_house_semantic_6"",""semantic_sequence/redecorating_a_house_semantic/redecorating_a_house_semantic_ten"",""semantic_sequence/redecorating_a_house_semantic/redecorating_a_house_semantic_5"",""semantic_sequence/redecorating_a_house_semantic/redecorating_a_house_semantic_2""]","[{""src"":""https://test12345.live/images/semantic_sequence/redecorating_a_house_semantic/redecorating_a_house_semantic_1.png"",""x"":256,""y"":397,""move_time"":30559},{""src"":""https://test12345.live/images/semantic_sequence/redecorating_a_house_semantic/redecorating_a_house_semantic_9.png"",""x"":407,""y"":397,""move_time"":2528},{""src"":""https://test12345.live/images/semantic_sequence/redecorating_a_house_semantic/redecorating_a_house_semantic_5.png"",""x"":558,""y"":397,""move_time"":15011},{""src"":""https://test12345.live/images/semantic_sequence/redecorating_a_house_semantic/redecorating_a_house_semantic_2.png"",""x"":709,""y"":397,""move_time"":5778},{""src"":""https://test12345.live/images/semantic_sequence/redecorating_a_house_semantic/redecorating_a_house_semantic_6.png"",""x"":860,""y"":397,""move_time"":5595},{""src"":""https://test12345.live/images/semantic_sequence/redecorating_a_house_semantic/redecorating_a_house_semantic_ten.png"",""x"":256,""y"":548,""move_time"":1183},{""src"":""https://test12345.live/images/semantic_sequence/redecorating_a_house_semantic/redecorating_a_house_semantic_3.png"",""x"":407,""y"":548,""move_time"":1645},{""src"":""https://test12345.live/images/semantic_sequence/redecorating_a_house_semantic/redecorating_a_house_semantic_4.png"",""x"":558,""y"":548,""move_time"":2475},{""src"":""https://test12345.live/images/semantic_sequence/redecorating_a_house_semantic/redecorating_a_house_semantic_8.png"",""x"":709,""y"":548,""move_time"":1914},{""src"":""https://test12345.live/images/semantic_sequence/redecorating_a_house_semantic/redecorating_a_house_semantic_7.png"",""x"":860,""y"":548,""move_time"":1845}]","[{""src"":""https://test12345.live/images/semantic_sequence/redecorating_a_house_semantic/redecorating_a_house_semantic_1.png"",""x"":256,""y"":397},{""src"":""https://test12345.live/images/semantic_sequence/redecorating_a_house_semantic/redecorating_a_house_semantic_ten.png"",""x"":256,""y"":548},{""src"":""https://test12345.live/images/semantic_sequence/redecorating_a_house_semantic/redecorating_a_house_semantic_9.png"",""x"":407,""y"":397},{""src"":""https://test12345.live/images/semantic_sequence/redecorating_a_house_semantic/redecorating_a_house_semantic_3.png"",""x"":407,""y"":548},{""src"":""https://test12345.live/images/semantic_sequence/redecorating_a_house_semantic/redecorating_a_house_semantic_5.png"",""x"":558,""y"":397},{""src"":""https://test12345.live/images/semantic_sequence/redecorating_a_house_semantic/redecorating_a_house_semantic_4.png"",""x"":558,""y"":548},{""src"":""https://test12345.live/images/semantic_sequence/redecorating_a_house_semantic/redecorating_a_house_semantic_2.png"",""x"":709,""y"":397},{""src"":""https://test12345.live/images/semantic_sequence/redecorating_a_house_semantic/redecorating_a_house_semantic_8.png"",""x"":709,""y"":548},{""src"":""https://test12345.live/images/semantic_sequence/redecorating_a_house_semantic/redecorating_a_house_semantic_6.png"",""x"":860,""y"":397},{""src"":""https://test12345.live/images/semantic_sequence/redecorating_a_house_semantic/redecorating_a_house_semantic_7.png"",""x"":860,""y"":548}]","10",""
"","order","17","1972709","0.0-17.0","E8B0A6E592254AF1BB3A758752E979C0","conditionC","","74649","[""semantic_sequence/physical_activity_semantic/physical_activity_semantic_7"",""semantic_sequence/physical_activity_semantic/physical_activity_semantic_9"",""semantic_sequence/physical_activity_semantic/physical_activity_semantic_6"",""semantic_sequence/physical_activity_semantic/physical_activity_semantic_2"",""semantic_sequence/physical_activity_semantic/physical_activity_semantic_4"",""semantic_sequence/physical_activity_semantic/physical_activity_semantic_8"",""semantic_sequence/physical_activity_semantic/physical_activity_semantic_3"",""semantic_sequence/physical_activity_semantic/physical_activity_semantic_ten"",""semantic_sequence/physical_activity_semantic/physical_activity_semantic_1"",""semantic_sequence/physical_activity_semantic/physical_activity_semantic_5""]","[{""src"":""https://test12345.live/images/semantic_sequence/physical_activity_semantic/physical_activity_semantic_1.png"",""x"":256,""y"":397,""move_time"":48611},{""src"":""https://test12345.live/images/semantic_sequence/physical_activity_semantic/physical_activity_semantic_2.png"",""x"":407,""y"":397,""move_time"":2741},{""src"":""https://test12345.live/images/semantic_sequence/physical_activity_semantic/physical_activity_semantic_3.png"",""x"":558,""y"":397,""move_time"":3950},{""src"":""https://test12345.live/images/semantic_sequence/physical_activity_semantic/physical_activity_semantic_4.png"",""x"":709,""y"":397,""move_time"":4256},{""src"":""https://test12345.live/images/semantic_sequence/physical_activity_semantic/physical_activity_semantic_5.png"",""x"":860,""y"":397,""move_time"":1183},{""src"":""https://test12345.live/images/semantic_sequence/physical_activity_semantic/physical_activity_semantic_6.png"",""x"":256,""y"":548,""move_time"":3025},{""src"":""https://test12345.live/images/semantic_sequence/physical_activity_semantic/physical_activity_semantic_7.png"",""x"":407,""y"":548,""move_time"":1551},{""src"":""https://test12345.live/images/semantic_sequence/physical_activity_semantic/physical_activity_semantic_8.png"",""x"":558,""y"":548,""move_time"":4975},{""src"":""https://test12345.live/images/semantic_sequence/physical_activity_semantic/physical_activity_semantic_9.png"",""x"":709,""y"":548,""move_time"":1306},{""src"":""https://test12345.live/images/semantic_sequence/physical_activity_semantic/physical_activity_semantic_ten.png"",""x"":860,""y"":548,""move_time"":1356}]","[{""src"":""https://test12345.live/images/semantic_sequence/physical_activity_semantic/physical_activity_semantic_1.png"",""x"":256,""y"":397},{""src"":""https://test12345.live/images/semantic_sequence/physical_activity_semantic/physical_activity_semantic_6.png"",""x"":256,""y"":548},{""src"":""https://test12345.live/images/semantic_sequence/physical_activity_semantic/physical_activity_semantic_2.png"",""x"":407,""y"":397},{""src"":""https://test12345.live/images/semantic_sequence/physical_activity_semantic/physical_activity_semantic_7.png"",""x"":407,""y"":548},{""src"":""https://test12345.live/images/semantic_sequence/physical_activity_semantic/physical_activity_semantic_3.png"",""x"":558,""y"":397},{""src"":""https://test12345.live/images/semantic_sequence/physical_activity_semantic/physical_activity_semantic_8.png"",""x"":558,""y"":548},{""src"":""https://test12345.live/images/semantic_sequence/physical_activity_semantic/physical_activity_semantic_4.png"",""x"":709,""y"":397},{""src"":""https://test12345.live/images/semantic_sequence/physical_activity_semantic/physical_activity_semantic_9.png"",""x"":709,""y"":548},{""src"":""https://test12345.live/images/semantic_sequence/physical_activity_semantic/physical_activity_semantic_5.png"",""x"":860,""y"":397},{""src"":""https://test12345.live/images/semantic_sequence/physical_activity_semantic/physical_activity_semantic_ten.png"",""x"":860,""y"":548}]","10",""
"","order","18","2076725","0.0-18.0","E8B0A6E592254AF1BB3A758752E979C0","conditionC","","104015","[""causal_sequence/museum_causal/museum_causal_6"",""causal_sequence/museum_causal/museum_causal_5"",""causal_sequence/museum_causal/museum_causal_2"",""causal_sequence/museum_causal/museum_causal_7"",""causal_sequence/museum_causal/museum_causal_3"",""causal_sequence/museum_causal/museum_causal_8"",""causal_sequence/museum_causal/museum_causal_9"",""causal_sequence/museum_causal/museum_causal_4"",""causal_sequence/museum_causal/museum_causal_ten"",""causal_sequence/museum_causal/museum_causal_1""]","[{""src"":""https://test12345.live/images/causal_sequence/museum_causal/museum_causal_1.png"",""x"":256,""y"":397,""move_time"":58739},{""src"":""https://test12345.live/images/causal_sequence/museum_causal/museum_causal_2.png"",""x"":407,""y"":397,""move_time"":2987},{""src"":""https://test12345.live/images/causal_sequence/museum_causal/museum_causal_3.png"",""x"":558,""y"":397,""move_time"":2419},{""src"":""https://test12345.live/images/causal_sequence/museum_causal/museum_causal_5.png"",""x"":709,""y"":397,""move_time"":1953},{""src"":""https://test12345.live/images/causal_sequence/museum_causal/museum_causal_6.png"",""x"":860,""y"":397,""move_time"":6857},{""src"":""https://test12345.live/images/causal_sequence/museum_causal/museum_causal_6.png"",""x"":407,""y"":548,""move_time"":7872},{""src"":""https://test12345.live/images/causal_sequence/museum_causal/museum_causal_5.png"",""x"":860,""y"":397,""move_time"":3513},{""src"":""https://test12345.live/images/causal_sequence/museum_causal/museum_causal_6.png"",""x"":256,""y"":548,""move_time"":1436},{""src"":""https://test12345.live/images/causal_sequence/museum_causal/museum_causal_4.png"",""x"":709,""y"":397,""move_time"":2720},{""src"":""https://test12345.live/images/causal_sequence/museum_causal/museum_causal_7.png"",""x"":407,""y"":548,""move_time"":9057},{""src"":""https://test12345.live/images/causal_sequence/museum_causal/museum_causal_ten.png"",""x"":558,""y"":548,""move_time"":1319},{""src"":""https://test12345.live/images/causal_sequence/museum_causal/museum_causal_9.png"",""x"":709,""y"":548,""move_time"":1628},{""src"":""https://test12345.live/images/causal_sequence/museum_causal/museum_causal_8.png"",""x"":860,""y"":548,""move_time"":2154}]","[{""src"":""https://test12345.live/images/causal_sequence/museum_causal/museum_causal_1.png"",""x"":256,""y"":397},{""src"":""https://test12345.live/images/causal_sequence/museum_causal/museum_causal_6.png"",""x"":256,""y"":548},{""src"":""https://test12345.live/images/causal_sequence/museum_causal/museum_causal_2.png"",""x"":407,""y"":397},{""src"":""https://test12345.live/images/causal_sequence/museum_causal/museum_causal_7.png"",""x"":407,""y"":548},{""src"":""https://test12345.live/images/causal_sequence/museum_causal/museum_causal_3.png"",""x"":558,""y"":397},{""src"":""https://test12345.live/images/causal_sequence/museum_causal/museum_causal_ten.png"",""x"":558,""y"":548},{""src"":""https://test12345.live/images/causal_sequence/museum_causal/museum_causal_4.png"",""x"":709,""y"":397},{""src"":""https://test12345.live/images/causal_sequence/museum_causal/museum_causal_9.png"",""x"":709,""y"":548},{""src"":""https://test12345.live/images/causal_sequence/museum_causal/museum_causal_5.png"",""x"":860,""y"":397},{""src"":""https://test12345.live/images/causal_sequence/museum_causal/museum_causal_8.png"",""x"":860,""y"":548}]","13",""
"","order","19","2140359","0.0-19.0","E8B0A6E592254AF1BB3A758752E979C0","conditionC","","63634","[""semantic_sequence/traveling_semantic/traveling_semantic_3"",""semantic_sequence/traveling_semantic/traveling_semantic_9"",""semantic_sequence/traveling_semantic/traveling_semantic_4"",""semantic_sequence/traveling_semantic/traveling_semantic_6"",""semantic_sequence/traveling_semantic/traveling_semantic_2"",""semantic_sequence/traveling_semantic/traveling_semantic_8"",""semantic_sequence/traveling_semantic/traveling_semantic_7"",""semantic_sequence/traveling_semantic/traveling_semantic_1"",""semantic_sequence/traveling_semantic/traveling_semantic_5"",""semantic_sequence/traveling_semantic/traveling_semantic_ten""]","[{""src"":""https://test12345.live/images/semantic_sequence/traveling_semantic/traveling_semantic_6.png"",""x"":860,""y"":548,""move_time"":28110},{""src"":""https://test12345.live/images/semantic_sequence/traveling_semantic/traveling_semantic_5.png"",""x"":860,""y"":397,""move_time"":17795},{""src"":""https://test12345.live/images/semantic_sequence/traveling_semantic/traveling_semantic_ten.png"",""x"":709,""y"":397,""move_time"":1243},{""src"":""https://test12345.live/images/semantic_sequence/traveling_semantic/traveling_semantic_9.png"",""x"":407,""y"":397,""move_time"":4121},{""src"":""https://test12345.live/images/semantic_sequence/traveling_semantic/traveling_semantic_3.png"",""x"":256,""y"":397,""move_time"":3136},{""src"":""https://test12345.live/images/semantic_sequence/traveling_semantic/traveling_semantic_8.png"",""x"":256,""y"":548,""move_time"":3034},{""src"":""https://test12345.live/images/semantic_sequence/traveling_semantic/traveling_semantic_1.png"",""x"":407,""y"":548,""move_time"":1538},{""src"":""https://test12345.live/images/semantic_sequence/traveling_semantic/traveling_semantic_7.png"",""x"":558,""y"":548,""move_time"":1229},{""src"":""https://test12345.live/images/semantic_sequence/traveling_semantic/traveling_semantic_2.png"",""x"":709,""y"":548,""move_time"":1489},{""src"":""https://test12345.live/images/semantic_sequence/traveling_semantic/traveling_semantic_4.png"",""x"":558,""y"":397,""move_time"":1165}]","[{""src"":""https://test12345.live/images/semantic_sequence/traveling_semantic/traveling_semantic_3.png"",""x"":256,""y"":397},{""src"":""https://test12345.live/images/semantic_sequence/traveling_semantic/traveling_semantic_8.png"",""x"":256,""y"":548},{""src"":""https://test12345.live/images/semantic_sequence/traveling_semantic/traveling_semantic_9.png"",""x"":407,""y"":397},{""src"":""https://test12345.live/images/semantic_sequence/traveling_semantic/traveling_semantic_1.png"",""x"":407,""y"":548},{""src"":""https://test12345.live/images/semantic_sequence/traveling_semantic/traveling_semantic_4.png"",""x"":558,""y"":397},{""src"":""https://test12345.live/images/semantic_sequence/traveling_semantic/traveling_semantic_7.png"",""x"":558,""y"":548},{""src"":""https://test12345.live/images/semantic_sequence/traveling_semantic/traveling_semantic_ten.png"",""x"":709,""y"":397},{""src"":""https://test12345.live/images/semantic_sequence/traveling_semantic/traveling_semantic_2.png"",""x"":709,""y"":548},{""src"":""https://test12345.live/images/semantic_sequence/traveling_semantic/traveling_semantic_5.png"",""x"":860,""y"":397},{""src"":""https://test12345.live/images/semantic_sequence/traveling_semantic/traveling_semantic_6.png"",""x"":860,""y"":548}]","10",""
"","order","20","2243611","0.0-20.0","E8B0A6E592254AF1BB3A758752E979C0","conditionC","","103252","[""semantic_sequence/exploring_nature_semantic/exploring_nature_semantic_6"",""semantic_sequence/exploring_nature_semantic/exploring_nature_semantic_3"",""semantic_sequence/exploring_nature_semantic/exploring_nature_semantic_9"",""semantic_sequence/exploring_nature_semantic/exploring_nature_semantic_5"",""semantic_sequence/exploring_nature_semantic/exploring_nature_semantic_1"",""semantic_sequence/exploring_nature_semantic/exploring_nature_semantic_8"",""semantic_sequence/exploring_nature_semantic/exploring_nature_semantic_4"",""semantic_sequence/exploring_nature_semantic/exploring_nature_semantic_2"",""semantic_sequence/exploring_nature_semantic/exploring_nature_semantic_7"",""semantic_sequence/exploring_nature_semantic/exploring_nature_semantic_ten""]","[{""src"":""https://test12345.live/images/semantic_sequence/exploring_nature_semantic/exploring_nature_semantic_ten.png"",""x"":860,""y"":548,""move_time"":61977},{""src"":""https://test12345.live/images/semantic_sequence/exploring_nature_semantic/exploring_nature_semantic_9.png"",""x"":256,""y"":397,""move_time"":10563},{""src"":""https://test12345.live/images/semantic_sequence/exploring_nature_semantic/exploring_nature_semantic_1.png"",""x"":407,""y"":397,""move_time"":2837},{""src"":""https://test12345.live/images/semantic_sequence/exploring_nature_semantic/exploring_nature_semantic_7.png"",""x"":558,""y"":397,""move_time"":8494},{""src"":""https://test12345.live/images/semantic_sequence/exploring_nature_semantic/exploring_nature_semantic_2.png"",""x"":709,""y"":397,""move_time"":3387},{""src"":""https://test12345.live/images/semantic_sequence/exploring_nature_semantic/exploring_nature_semantic_5.png"",""x"":256,""y"":548,""move_time"":2306},{""src"":""https://test12345.live/images/semantic_sequence/exploring_nature_semantic/exploring_nature_semantic_4.png"",""x"":860,""y"":397,""move_time"":5132},{""src"":""https://test12345.live/images/semantic_sequence/exploring_nature_semantic/exploring_nature_semantic_3.png"",""x"":407,""y"":548,""move_time"":3337},{""src"":""https://test12345.live/images/semantic_sequence/exploring_nature_semantic/exploring_nature_semantic_6.png"",""x"":558,""y"":548,""move_time"":1770},{""src"":""https://test12345.live/images/semantic_sequence/exploring_nature_semantic/exploring_nature_semantic_8.png"",""x"":709,""y"":548,""move_time"":1341}]","[{""src"":""https://test12345.live/images/semantic_sequence/exploring_nature_semantic/exploring_nature_semantic_9.png"",""x"":256,""y"":397},{""src"":""https://test12345.live/images/semantic_sequence/exploring_nature_semantic/exploring_nature_semantic_5.png"",""x"":256,""y"":548},{""src"":""https://test12345.live/images/semantic_sequence/exploring_nature_semantic/exploring_nature_semantic_1.png"",""x"":407,""y"":397},{""src"":""https://test12345.live/images/semantic_sequence/exploring_nature_semantic/exploring_nature_semantic_3.png"",""x"":407,""y"":548},{""src"":""https://test12345.live/images/semantic_sequence/exploring_nature_semantic/exploring_nature_semantic_7.png"",""x"":558,""y"":397},{""src"":""https://test12345.live/images/semantic_sequence/exploring_nature_semantic/exploring_nature_semantic_6.png"",""x"":558,""y"":548},{""src"":""https://test12345.live/images/semantic_sequence/exploring_nature_semantic/exploring_nature_semantic_2.png"",""x"":709,""y"":397},{""src"":""https://test12345.live/images/semantic_sequence/exploring_nature_semantic/exploring_nature_semantic_8.png"",""x"":709,""y"":548},{""src"":""https://test12345.live/images/semantic_sequence/exploring_nature_semantic/exploring_nature_semantic_4.png"",""x"":860,""y"":397},{""src"":""https://test12345.live/images/semantic_sequence/exploring_nature_semantic/exploring_nature_semantic_ten.png"",""x"":860,""y"":548}]","10",""
"","order","21","2362377","0.0-21.0","E8B0A6E592254AF1BB3A758752E979C0","conditionC","","118766","[""causal_sequence/the_performance_causal/the_performance_causal_8"",""causal_sequence/the_performance_causal/the_performance_causal_1"",""causal_sequence/the_performance_causal/the_performance_causal_6"",""causal_sequence/the_performance_causal/the_performance_causal_ten"",""causal_sequence/the_performance_causal/the_performance_causal_3"",""causal_sequence/the_performance_causal/the_performance_causal_2"",""causal_sequence/the_performance_causal/the_performance_causal_4"",""causal_sequence/the_performance_causal/the_performance_causal_5"",""causal_sequence/the_performance_causal/the_performance_causal_9"",""causal_sequence/the_performance_causal/the_performance_causal_7""]","[{""src"":""https://test12345.live/images/causal_sequence/the_performance_causal/the_performance_causal_1.png"",""x"":256,""y"":397,""move_time"":69889},{""src"":""https://test12345.live/images/causal_sequence/the_performance_causal/the_performance_causal_3.png"",""x"":558,""y"":397,""move_time"":8332},{""src"":""https://test12345.live/images/causal_sequence/the_performance_causal/the_performance_causal_4.png"",""x"":709,""y"":397,""move_time"":2472},{""src"":""https://test12345.live/images/causal_sequence/the_performance_causal/the_performance_causal_3.png"",""x"":407,""y"":397,""move_time"":1073},{""src"":""https://test12345.live/images/causal_sequence/the_performance_causal/the_performance_causal_4.png"",""x"":558,""y"":397,""move_time"":1858},{""src"":""https://test12345.live/images/causal_sequence/the_performance_causal/the_performance_causal_5.png"",""x"":709,""y"":397,""move_time"":2900},{""src"":""https://test12345.live/images/causal_sequence/the_performance_causal/the_performance_causal_6.png"",""x"":558,""y"":49,""move_time"":8583},{""src"":""https://test12345.live/images/causal_sequence/the_performance_causal/the_performance_causal_5.png"",""x"":860,""y"":397,""move_time"":1953},{""src"":""https://test12345.live/images/causal_sequence/the_performance_causal/the_performance_causal_4.png"",""x"":709,""y"":397,""move_time"":1041},{""src"":""https://test12345.live/images/causal_sequence/the_performance_causal/the_performance_causal_3.png"",""x"":558,""y"":397,""move_time"":967},{""src"":""https://test12345.live/images/causal_sequence/the_performance_causal/the_performance_causal_1.png"",""x"":256,""y"":397,""move_time"":1716},{""src"":""https://test12345.live/images/causal_sequence/the_performance_causal/the_performance_causal_2.png"",""x"":407,""y"":397,""move_time"":1443},{""src"":""https://test12345.live/images/causal_sequence/the_performance_causal/the_performance_causal_6.png"",""x"":256,""y"":548,""move_time"":5050},{""src"":""https://test12345.live/images/causal_sequence/the_performance_causal/the_performance_causal_7.png"",""x"":407,""y"":548,""move_time"":5319},{""src"":""https://test12345.live/images/causal_sequence/the_performance_causal/the_performance_causal_8.png"",""x"":558,""y"":548,""move_time"":2543},{""src"":""https://test12345.live/images/causal_sequence/the_performance_causal/the_performance_causal_9.png"",""x"":709,""y"":548,""move_time"":1130},{""src"":""https://test12345.live/images/causal_sequence/the_performance_causal/the_performance_causal_ten.png"",""x"":860,""y"":548,""move_time"":1466}]","[{""src"":""https://test12345.live/images/causal_sequence/the_performance_causal/the_performance_causal_1.png"",""x"":256,""y"":397},{""src"":""https://test12345.live/images/causal_sequence/the_performance_causal/the_performance_causal_6.png"",""x"":256,""y"":548},{""src"":""https://test12345.live/images/causal_sequence/the_performance_causal/the_performance_causal_2.png"",""x"":407,""y"":397},{""src"":""https://test12345.live/images/causal_sequence/the_performance_causal/the_performance_causal_7.png"",""x"":407,""y"":548},{""src"":""https://test12345.live/images/causal_sequence/the_performance_causal/the_performance_causal_3.png"",""x"":558,""y"":397},{""src"":""https://test12345.live/images/causal_sequence/the_performance_causal/the_performance_causal_8.png"",""x"":558,""y"":548},{""src"":""https://test12345.live/images/causal_sequence/the_performance_causal/the_performance_causal_4.png"",""x"":709,""y"":397},{""src"":""https://test12345.live/images/causal_sequence/the_performance_causal/the_performance_causal_9.png"",""x"":709,""y"":548},{""src"":""https://test12345.live/images/causal_sequence/the_performance_causal/the_performance_causal_5.png"",""x"":860,""y"":397},{""src"":""https://test12345.live/images/causal_sequence/the_performance_causal/the_performance_causal_ten.png"",""x"":860,""y"":548}]","17",""
"","order","22","2451961","0.0-22.0","E8B0A6E592254AF1BB3A758752E979C0","conditionC","","89584","[""schematic_sequence/restaurant_scheme/restaurant_scheme_1"",""schematic_sequence/restaurant_scheme/restaurant_scheme_2"",""schematic_sequence/restaurant_scheme/restaurant_scheme_3"",""schematic_sequence/restaurant_scheme/restaurant_scheme_8"",""schematic_sequence/restaurant_scheme/restaurant_scheme_4"",""schematic_sequence/restaurant_scheme/restaurant_scheme_ten"",""schematic_sequence/restaurant_scheme/restaurant_scheme_6"",""schematic_sequence/restaurant_scheme/restaurant_scheme_5"",""schematic_sequence/restaurant_scheme/restaurant_scheme_9"",""schematic_sequence/restaurant_scheme/restaurant_scheme_7""]","[{""src"":""https://test12345.live/images/schematic_sequence/restaurant_scheme/restaurant_scheme_1.png"",""x"":248,""y"":368,""move_time"":43150},{""src"":""https://test12345.live/images/schematic_sequence/restaurant_scheme/restaurant_scheme_2.png"",""x"":395,""y"":368,""move_time"":3090},{""src"":""https://test12345.live/images/schematic_sequence/restaurant_scheme/restaurant_scheme_3.png"",""x"":541,""y"":368,""move_time"":9727},{""src"":""https://test12345.live/images/schematic_sequence/restaurant_scheme/restaurant_scheme_4.png"",""x"":688,""y"":368,""move_time"":1429},{""src"":""https://test12345.live/images/schematic_sequence/restaurant_scheme/restaurant_scheme_6.png"",""x"":834,""y"":368,""move_time"":3447},{""src"":""https://test12345.live/images/schematic_sequence/restaurant_scheme/restaurant_scheme_7.png"",""x"":248,""y"":514,""move_time"":2656},{""src"":""https://test12345.live/images/schematic_sequence/restaurant_scheme/restaurant_scheme_7.png"",""x"":395,""y"":408,""move_time"":8625},{""src"":""https://test12345.live/images/schematic_sequence/restaurant_scheme/restaurant_scheme_6.png"",""x"":248,""y"":408,""move_time"":2210},{""src"":""https://test12345.live/images/schematic_sequence/restaurant_scheme/restaurant_scheme_5.png"",""x"":834,""y"":261,""move_time"":3713},{""src"":""https://test12345.live/images/schematic_sequence/restaurant_scheme/restaurant_scheme_9.png"",""x"":688,""y"":408,""move_time"":8006},{""src"":""https://test12345.live/images/schematic_sequence/restaurant_scheme/restaurant_scheme_ten.png"",""x"":834,""y"":408,""move_time"":1221},{""src"":""https://test12345.live/images/schematic_sequence/restaurant_scheme/restaurant_scheme_8.png"",""x"":541,""y"":408,""move_time"":1551}]","[{""src"":""https://test12345.live/images/schematic_sequence/restaurant_scheme/restaurant_scheme_1.png"",""x"":248,""y"":261},{""src"":""https://test12345.live/images/schematic_sequence/restaurant_scheme/restaurant_scheme_6.png"",""x"":248,""y"":408},{""src"":""https://test12345.live/images/schematic_sequence/restaurant_scheme/restaurant_scheme_2.png"",""x"":395,""y"":261},{""src"":""https://test12345.live/images/schematic_sequence/restaurant_scheme/restaurant_scheme_7.png"",""x"":395,""y"":408},{""src"":""https://test12345.live/images/schematic_sequence/restaurant_scheme/restaurant_scheme_3.png"",""x"":541,""y"":261},{""src"":""https://test12345.live/images/schematic_sequence/restaurant_scheme/restaurant_scheme_8.png"",""x"":541,""y"":408},{""src"":""https://test12345.live/images/schematic_sequence/restaurant_scheme/restaurant_scheme_4.png"",""x"":688,""y"":261},{""src"":""https://test12345.live/images/schematic_sequence/restaurant_scheme/restaurant_scheme_9.png"",""x"":688,""y"":408},{""src"":""https://test12345.live/images/schematic_sequence/restaurant_scheme/restaurant_scheme_5.png"",""x"":834,""y"":261},{""src"":""https://test12345.live/images/schematic_sequence/restaurant_scheme/restaurant_scheme_ten.png"",""x"":834,""y"":408}]","12",""
"","order","23","2491861","0.0-23.0","E8B0A6E592254AF1BB3A758752E979C0","conditionC","","39900","[""semantic_sequence/market_semantic/market_semantic_5"",""semantic_sequence/market_semantic/market_semantic_2"",""semantic_sequence/market_semantic/market_semantic_7"",""semantic_sequence/market_semantic/market_semantic_4"",""semantic_sequence/market_semantic/market_semantic_6"",""semantic_sequence/market_semantic/market_semantic_ten"",""semantic_sequence/market_semantic/market_semantic_1"",""semantic_sequence/market_semantic/market_semantic_3"",""semantic_sequence/market_semantic/market_semantic_9"",""semantic_sequence/market_semantic/market_semantic_8""]","[{""src"":""https://test12345.live/images/semantic_sequence/market_semantic/market_semantic_1.png"",""x"":248,""y"":368,""move_time"":10669},{""src"":""https://test12345.live/images/semantic_sequence/market_semantic/market_semantic_2.png"",""x"":395,""y"":368,""move_time"":1716},{""src"":""https://test12345.live/images/semantic_sequence/market_semantic/market_semantic_3.png"",""x"":541,""y"":368,""move_time"":4524},{""src"":""https://test12345.live/images/semantic_sequence/market_semantic/market_semantic_6.png"",""x"":834,""y"":29,""move_time"":2023},{""src"":""https://test12345.live/images/semantic_sequence/market_semantic/market_semantic_4.png"",""x"":688,""y"":368,""move_time"":1634},{""src"":""https://test12345.live/images/semantic_sequence/market_semantic/market_semantic_5.png"",""x"":834,""y"":368,""move_time"":5158},{""src"":""https://test12345.live/images/semantic_sequence/market_semantic/market_semantic_6.png"",""x"":248,""y"":482,""move_time"":2528},{""src"":""https://test12345.live/images/semantic_sequence/market_semantic/market_semantic_7.png"",""x"":395,""y"":482,""move_time"":2270},{""src"":""https://test12345.live/images/semantic_sequence/market_semantic/market_semantic_8.png"",""x"":395,""y"":482,""move_time"":1306},{""src"":""https://test12345.live/images/semantic_sequence/market_semantic/market_semantic_9.png"",""x"":688,""y"":143,""move_time"":1303},{""src"":""https://test12345.live/images/semantic_sequence/market_semantic/market_semantic_7.png"",""x"":541,""y"":482,""move_time"":1984},{""src"":""https://test12345.live/images/semantic_sequence/market_semantic/market_semantic_9.png"",""x"":688,""y"":482,""move_time"":1655},{""src"":""https://test12345.live/images/semantic_sequence/market_semantic/market_semantic_ten.png"",""x"":834,""y"":482,""move_time"":1989}]","[{""src"":""https://test12345.live/images/semantic_sequence/market_semantic/market_semantic_1.png"",""x"":248,""y"":336},{""src"":""https://test12345.live/images/semantic_sequence/market_semantic/market_semantic_6.png"",""x"":248,""y"":482},{""src"":""https://test12345.live/images/semantic_sequence/market_semantic/market_semantic_2.png"",""x"":395,""y"":336},{""src"":""https://test12345.live/images/semantic_sequence/market_semantic/market_semantic_8.png"",""x"":395,""y"":482},{""src"":""https://test12345.live/images/semantic_sequence/market_semantic/market_semantic_3.png"",""x"":541,""y"":336},{""src"":""https://test12345.live/images/semantic_sequence/market_semantic/market_semantic_7.png"",""x"":541,""y"":482},{""src"":""https://test12345.live/images/semantic_sequence/market_semantic/market_semantic_4.png"",""x"":688,""y"":336},{""src"":""https://test12345.live/images/semantic_sequence/market_semantic/market_semantic_9.png"",""x"":688,""y"":482},{""src"":""https://test12345.live/images/semantic_sequence/market_semantic/market_semantic_5.png"",""x"":834,""y"":336},{""src"":""https://test12345.live/images/semantic_sequence/market_semantic/market_semantic_ten.png"",""x"":834,""y"":482}]","13",""
"","order","24","2572507","0.0-24.0","E8B0A6E592254AF1BB3A758752E979C0","conditionC","","80646","[""schematic_sequence/dinner_party_scheme/dinner_party_scheme_4"",""schematic_sequence/dinner_party_scheme/dinner_party_scheme_7"",""schematic_sequence/dinner_party_scheme/dinner_party_scheme_6"",""schematic_sequence/dinner_party_scheme/dinner_party_scheme_3"",""schematic_sequence/dinner_party_scheme/dinner_party_scheme_8"",""schematic_sequence/dinner_party_scheme/dinner_party_scheme_ten"",""schematic_sequence/dinner_party_scheme/dinner_party_scheme_2"",""schematic_sequence/dinner_party_scheme/dinner_party_scheme_9"",""schematic_sequence/dinner_party_scheme/dinner_party_scheme_5"",""schematic_sequence/dinner_party_scheme/dinner_party_scheme_1""]","[{""src"":""https://test12345.live/images/schematic_sequence/dinner_party_scheme/dinner_party_scheme_1.png"",""x"":248,""y"":368,""move_time"":18309},{""src"":""https://test12345.live/images/schematic_sequence/dinner_party_scheme/dinner_party_scheme_2.png"",""x"":395,""y"":368,""move_time"":12483},{""src"":""https://test12345.live/images/schematic_sequence/dinner_party_scheme/dinner_party_scheme_3.png"",""x"":541,""y"":368,""move_time"":8942},{""src"":""https://test12345.live/images/schematic_sequence/dinner_party_scheme/dinner_party_scheme_4.png"",""x"":688,""y"":368,""move_time"":4871},{""src"":""https://test12345.live/images/schematic_sequence/dinner_party_scheme/dinner_party_scheme_4.png"",""x"":834,""y"":268,""move_time"":15043},{""src"":""https://test12345.live/images/schematic_sequence/dinner_party_scheme/dinner_party_scheme_ten.png"",""x"":688,""y"":268,""move_time"":2740},{""src"":""https://test12345.live/images/schematic_sequence/dinner_party_scheme/dinner_party_scheme_5.png"",""x"":248,""y"":414,""move_time"":6621},{""src"":""https://test12345.live/images/schematic_sequence/dinner_party_scheme/dinner_party_scheme_6.png"",""x"":395,""y"":414,""move_time"":6067},{""src"":""https://test12345.live/images/schematic_sequence/dinner_party_scheme/dinner_party_scheme_7.png"",""x"":541,""y"":414,""move_time"":1645},{""src"":""https://test12345.live/images/schematic_sequence/dinner_party_scheme/dinner_party_scheme_9.png"",""x"":688,""y"":414,""move_time"":1244},{""src"":""https://test12345.live/images/schematic_sequence/dinner_party_scheme/dinner_party_scheme_8.png"",""x"":834,""y"":414,""move_time"":1641}]","[{""src"":""https://test12345.live/images/schematic_sequence/dinner_party_scheme/dinner_party_scheme_1.png"",""x"":248,""y"":268},{""src"":""https://test12345.live/images/schematic_sequence/dinner_party_scheme/dinner_party_scheme_5.png"",""x"":248,""y"":414},{""src"":""https://test12345.live/images/schematic_sequence/dinner_party_scheme/dinner_party_scheme_2.png"",""x"":395,""y"":268},{""src"":""https://test12345.live/images/schematic_sequence/dinner_party_scheme/dinner_party_scheme_6.png"",""x"":395,""y"":414},{""src"":""https://test12345.live/images/schematic_sequence/dinner_party_scheme/dinner_party_scheme_3.png"",""x"":541,""y"":268},{""src"":""https://test12345.live/images/schematic_sequence/dinner_party_scheme/dinner_party_scheme_7.png"",""x"":541,""y"":414},{""src"":""https://test12345.live/images/schematic_sequence/dinner_party_scheme/dinner_party_scheme_ten.png"",""x"":688,""y"":268},{""src"":""https://test12345.live/images/schematic_sequence/dinner_party_scheme/dinner_party_scheme_9.png"",""x"":688,""y"":414},{""src"":""https://test12345.live/images/schematic_sequence/dinner_party_scheme/dinner_party_scheme_4.png"",""x"":834,""y"":268},{""src"":""https://test12345.live/images/schematic_sequence/dinner_party_scheme/dinner_party_scheme_8.png"",""x"":834,""y"":414}]","11",""
"","order","25","2645520","0.0-25.0","E8B0A6E592254AF1BB3A758752E979C0","conditionC","","73012","[""semantic_sequence/maintaining_a_car_semantic/maintaining_a_car_semantic_2"",""semantic_sequence/maintaining_a_car_semantic/maintaining_a_car_semantic_ten"",""semantic_sequence/maintaining_a_car_semantic/maintaining_a_car_semantic_1"",""semantic_sequence/maintaining_a_car_semantic/maintaining_a_car_semantic_9"",""semantic_sequence/maintaining_a_car_semantic/maintaining_a_car_semantic_8"",""semantic_sequence/maintaining_a_car_semantic/maintaining_a_car_semantic_4"",""semantic_sequence/maintaining_a_car_semantic/maintaining_a_car_semantic_5"",""semantic_sequence/maintaining_a_car_semantic/maintaining_a_car_semantic_3"",""semantic_sequence/maintaining_a_car_semantic/maintaining_a_car_semantic_6"",""semantic_sequence/maintaining_a_car_semantic/maintaining_a_car_semantic_7""]","[{""src"":""https://test12345.live/images/semantic_sequence/maintaining_a_car_semantic/maintaining_a_car_semantic_6.png"",""x"":248,""y"":368,""move_time"":32449},{""src"":""https://test12345.live/images/semantic_sequence/maintaining_a_car_semantic/maintaining_a_car_semantic_3.png"",""x"":395,""y"":368,""move_time"":2884},{""src"":""https://test12345.live/images/semantic_sequence/maintaining_a_car_semantic/maintaining_a_car_semantic_5.png"",""x"":541,""y"":368,""move_time"":1371},{""src"":""https://test12345.live/images/semantic_sequence/maintaining_a_car_semantic/maintaining_a_car_semantic_7.png"",""x"":688,""y"":368,""move_time"":1863},{""src"":""https://test12345.live/images/semantic_sequence/maintaining_a_car_semantic/maintaining_a_car_semantic_8.png"",""x"":834,""y"":368,""move_time"":1524},{""src"":""https://test12345.live/images/semantic_sequence/maintaining_a_car_semantic/maintaining_a_car_semantic_2.png"",""x"":834,""y"":368,""move_time"":6812},{""src"":""https://test12345.live/images/semantic_sequence/maintaining_a_car_semantic/maintaining_a_car_semantic_2.png"",""x"":834,""y"":268,""move_time"":3843},{""src"":""https://test12345.live/images/semantic_sequence/maintaining_a_car_semantic/maintaining_a_car_semantic_2.png"",""x"":248,""y"":414,""move_time"":4073},{""src"":""https://test12345.live/images/semantic_sequence/maintaining_a_car_semantic/maintaining_a_car_semantic_8.png"",""x"":834,""y"":268,""move_time"":2260},{""src"":""https://test12345.live/images/semantic_sequence/maintaining_a_car_semantic/maintaining_a_car_semantic_9.png"",""x"":395,""y"":414,""move_time"":7764},{""src"":""https://test12345.live/images/semantic_sequence/maintaining_a_car_semantic/maintaining_a_car_semantic_1.png"",""x"":541,""y"":-71,""move_time"":1475},{""src"":""https://test12345.live/images/semantic_sequence/maintaining_a_car_semantic/maintaining_a_car_semantic_ten.png"",""x"":541,""y"":414,""move_time"":1112},{""src"":""https://test12345.live/images/semantic_sequence/maintaining_a_car_semantic/maintaining_a_car_semantic_4.png"",""x"":688,""y"":414,""move_time"":1338},{""src"":""https://test12345.live/images/semantic_sequence/maintaining_a_car_semantic/maintaining_a_car_semantic_1.png"",""x"":834,""y"":414,""move_time"":1480}]","[{""src"":""https://test12345.live/images/semantic_sequence/maintaining_a_car_semantic/maintaining_a_car_semantic_6.png"",""x"":248,""y"":261},{""src"":""https://test12345.live/images/semantic_sequence/maintaining_a_car_semantic/maintaining_a_car_semantic_2.png"",""x"":248,""y"":408},{""src"":""https://test12345.live/images/semantic_sequence/maintaining_a_car_semantic/maintaining_a_car_semantic_3.png"",""x"":395,""y"":261},{""src"":""https://test12345.live/images/semantic_sequence/maintaining_a_car_semantic/maintaining_a_car_semantic_9.png"",""x"":395,""y"":408},{""src"":""https://test12345.live/images/semantic_sequence/maintaining_a_car_semantic/maintaining_a_car_semantic_5.png"",""x"":541,""y"":261},{""src"":""https://test12345.live/images/semantic_sequence/maintaining_a_car_semantic/maintaining_a_car_semantic_ten.png"",""x"":541,""y"":408},{""src"":""https://test12345.live/images/semantic_sequence/maintaining_a_car_semantic/maintaining_a_car_semantic_7.png"",""x"":688,""y"":261},{""src"":""https://test12345.live/images/semantic_sequence/maintaining_a_car_semantic/maintaining_a_car_semantic_4.png"",""x"":688,""y"":408},{""src"":""https://test12345.live/images/semantic_sequence/maintaining_a_car_semantic/maintaining_a_car_semantic_8.png"",""x"":834,""y"":261},{""src"":""https://test12345.live/images/semantic_sequence/maintaining_a_car_semantic/maintaining_a_car_semantic_1.png"",""x"":834,""y"":408}]","14",""
"","order","26","2800309","0.0-26.0","E8B0A6E592254AF1BB3A758752E979C0","conditionC","","154789","[""semantic_sequence/cat_care_semantic/cat_care_semantic_1"",""semantic_sequence/cat_care_semantic/cat_care_semantic_5"",""semantic_sequence/cat_care_semantic/cat_care_semantic_2"",""semantic_sequence/cat_care_semantic/cat_care_semantic_6"",""semantic_sequence/cat_care_semantic/cat_care_semantic_3"",""semantic_sequence/cat_care_semantic/cat_care_semantic_9"",""semantic_sequence/cat_care_semantic/cat_care_semantic_4"",""semantic_sequence/cat_care_semantic/cat_care_semantic_7"",""semantic_sequence/cat_care_semantic/cat_care_semantic_8"",""semantic_sequence/cat_care_semantic/cat_care_semantic_ten""]","[{""src"":""https://test12345.live/images/semantic_sequence/cat_care_semantic/cat_care_semantic_1.png"",""x"":248,""y"":368,""move_time"":22794},{""src"":""https://test12345.live/images/semantic_sequence/cat_care_semantic/cat_care_semantic_3.png"",""x"":541,""y"":368,""move_time"":39262},{""src"":""https://test12345.live/images/semantic_sequence/cat_care_semantic/cat_care_semantic_2.png"",""x"":395,""y"":368,""move_time"":1504},{""src"":""https://test12345.live/images/semantic_sequence/cat_care_semantic/cat_care_semantic_3.png"",""x"":688,""y"":368,""move_time"":17494},{""src"":""https://test12345.live/images/semantic_sequence/cat_care_semantic/cat_care_semantic_3.png"",""x"":541,""y"":368,""move_time"":8989},{""src"":""https://test12345.live/images/semantic_sequence/cat_care_semantic/cat_care_semantic_4.png"",""x"":688,""y"":368,""move_time"":14698},{""src"":""https://test12345.live/images/semantic_sequence/cat_care_semantic/cat_care_semantic_9.png"",""x"":834,""y"":368,""move_time"":1725},{""src"":""https://test12345.live/images/semantic_sequence/cat_care_semantic/cat_care_semantic_8.png"",""x"":248,""y"":408,""move_time"":2956},{""src"":""https://test12345.live/images/semantic_sequence/cat_care_semantic/cat_care_semantic_5.png"",""x"":395,""y"":408,""move_time"":22288},{""src"":""https://test12345.live/images/semantic_sequence/cat_care_semantic/cat_care_semantic_7.png"",""x"":541,""y"":408,""move_time"":1141},{""src"":""https://test12345.live/images/semantic_sequence/cat_care_semantic/cat_care_semantic_6.png"",""x"":688,""y"":514,""move_time"":2390},{""src"":""https://test12345.live/images/semantic_sequence/cat_care_semantic/cat_care_semantic_ten.png"",""x"":834,""y"":414,""move_time"":2307}]","[{""src"":""https://test12345.live/images/semantic_sequence/cat_care_semantic/cat_care_semantic_1.png"",""x"":248,""y"":261},{""src"":""https://test12345.live/images/semantic_sequence/cat_care_semantic/cat_care_semantic_8.png"",""x"":248,""y"":408},{""src"":""https://test12345.live/images/semantic_sequence/cat_care_semantic/cat_care_semantic_2.png"",""x"":395,""y"":261},{""src"":""https://test12345.live/images/semantic_sequence/cat_care_semantic/cat_care_semantic_5.png"",""x"":395,""y"":408},{""src"":""https://test12345.live/images/semantic_sequence/cat_care_semantic/cat_care_semantic_3.png"",""x"":541,""y"":261},{""src"":""https://test12345.live/images/semantic_sequence/cat_care_semantic/cat_care_semantic_7.png"",""x"":541,""y"":408},{""src"":""https://test12345.live/images/semantic_sequence/cat_care_semantic/cat_care_semantic_4.png"",""x"":688,""y"":261},{""src"":""https://test12345.live/images/semantic_sequence/cat_care_semantic/cat_care_semantic_6.png"",""x"":688,""y"":408},{""src"":""https://test12345.live/images/semantic_sequence/cat_care_semantic/cat_care_semantic_9.png"",""x"":834,""y"":261},{""src"":""https://test12345.live/images/semantic_sequence/cat_care_semantic/cat_care_semantic_ten.png"",""x"":834,""y"":408}]","12",""
"","order","27","2859355","0.0-27.0","E8B0A6E592254AF1BB3A758752E979C0","conditionC","","59046","[""causal_sequence/saving_a_cat_causal/saving_a_cat_causal_ten"",""causal_sequence/saving_a_cat_causal/saving_a_cat_causal_8"",""causal_sequence/saving_a_cat_causal/saving_a_cat_causal_1"",""causal_sequence/saving_a_cat_causal/saving_a_cat_causal_7"",""causal_sequence/saving_a_cat_causal/saving_a_cat_causal_2"",""causal_sequence/saving_a_cat_causal/saving_a_cat_causal_4"",""causal_sequence/saving_a_cat_causal/saving_a_cat_causal_6"",""causal_sequence/saving_a_cat_causal/saving_a_cat_causal_9"",""causal_sequence/saving_a_cat_causal/saving_a_cat_causal_5"",""causal_sequence/saving_a_cat_causal/saving_a_cat_causal_3""]","[{""src"":""https://test12345.live/images/causal_sequence/saving_a_cat_causal/saving_a_cat_causal_1.png"",""x"":248,""y"":368,""move_time"":22737},{""src"":""https://test12345.live/images/causal_sequence/saving_a_cat_causal/saving_a_cat_causal_1.png"",""x"":395,""y"":368,""move_time"":6374},{""src"":""https://test12345.live/images/causal_sequence/saving_a_cat_causal/saving_a_cat_causal_ten.png"",""x"":248,""y"":368,""move_time"":2294},{""src"":""https://test12345.live/images/causal_sequence/saving_a_cat_causal/saving_a_cat_causal_2.png"",""x"":541,""y"":368,""move_time"":2637},{""src"":""https://test12345.live/images/causal_sequence/saving_a_cat_causal/saving_a_cat_causal_3.png"",""x"":688,""y"":368,""move_time"":1488},{""src"":""https://test12345.live/images/causal_sequence/saving_a_cat_causal/saving_a_cat_causal_4.png"",""x"":834,""y"":368,""move_time"":5566},{""src"":""https://test12345.live/images/causal_sequence/saving_a_cat_causal/saving_a_cat_causal_6.png"",""x"":248,""y"":408,""move_time"":2271},{""src"":""https://test12345.live/images/causal_sequence/saving_a_cat_causal/saving_a_cat_causal_7.png"",""x"":395,""y"":408,""move_time"":3371},{""src"":""https://test12345.live/images/causal_sequence/saving_a_cat_causal/saving_a_cat_causal_8.png"",""x"":541,""y"":408,""move_time"":1517},{""src"":""https://test12345.live/images/causal_sequence/saving_a_cat_causal/saving_a_cat_causal_8.png"",""x"":688,""y"":408,""move_time"":4679},{""src"":""https://test12345.live/images/causal_sequence/saving_a_cat_causal/saving_a_cat_causal_7.png"",""x"":541,""y"":408,""move_time"":1113},{""src"":""https://test12345.live/images/causal_sequence/saving_a_cat_causal/saving_a_cat_causal_6.png"",""x"":395,""y"":408,""move_time"":975},{""src"":""https://test12345.live/images/causal_sequence/saving_a_cat_causal/saving_a_cat_causal_5.png"",""x"":248,""y"":408,""move_time"":1459},{""src"":""https://test12345.live/images/causal_sequence/saving_a_cat_causal/saving_a_cat_causal_9.png"",""x"":834,""y"":408,""move_time"":1490}]","[{""src"":""https://test12345.live/images/causal_sequence/saving_a_cat_causal/saving_a_cat_causal_ten.png"",""x"":248,""y"":261},{""src"":""https://test12345.live/images/causal_sequence/saving_a_cat_causal/saving_a_cat_causal_5.png"",""x"":248,""y"":408},{""src"":""https://test12345.live/images/causal_sequence/saving_a_cat_causal/saving_a_cat_causal_1.png"",""x"":395,""y"":261},{""src"":""https://test12345.live/images/causal_sequence/saving_a_cat_causal/saving_a_cat_causal_6.png"",""x"":395,""y"":408},{""src"":""https://test12345.live/images/causal_sequence/saving_a_cat_causal/saving_a_cat_causal_2.png"",""x"":541,""y"":261},{""src"":""https://test12345.live/images/causal_sequence/saving_a_cat_causal/saving_a_cat_causal_7.png"",""x"":541,""y"":408},{""src"":""https://test12345.live/images/causal_sequence/saving_a_cat_causal/saving_a_cat_causal_3.png"",""x"":688,""y"":261},{""src"":""https://test12345.live/images/causal_sequence/saving_a_cat_causal/saving_a_cat_causal_8.png"",""x"":688,""y"":408},{""src"":""https://test12345.live/images/causal_sequence/saving_a_cat_causal/saving_a_cat_causal_4.png"",""x"":834,""y"":261},{""src"":""https://test12345.live/images/causal_sequence/saving_a_cat_causal/saving_a_cat_causal_9.png"",""x"":834,""y"":408}]","14",""
"","survey-text","28","2865380","0.0-28.0","E8B0A6E592254AF1BB3A758752E979C0","conditionC","","6022.200000047684","","","","","{""Q0"":""56""}"
"","survey-text","29","2870966","0.0-29.0","E8B0A6E592254AF1BB3A758752E979C0","conditionC","","5582.299999952316","","","","","{""Q0"":""female""}"
"","instructions","30","2883226","0.0-30.0","E8B0A6E592254AF1BB3A758752E979C0","conditionC","[{""page_index"":0,""viewing_time"":12259.200000047684}]","12259.5","","","","",""
