PID,practice,trial,block,run,gain_left,left_item_id,right_item_id,left_pair_id,right_pair_id,left_stimulus,right_stimulus,left_category,right_category,left_path,right_path,no_response,left_chosen,rt,higher_outcome_chosen,choice_type,iti
77131,1,1,0,0,NaN,NaN,NaN,NA,NA,NA,NA,NA,NA,Stimuli/Practice_stims/Final_decisions/debby-hudson-FmCSSSGge-0-unsplash.jpg,Stimuli/Practice_stims/Final_decisions/yassine-khalfalli-adsQ9d_Cx0c-unsplash.jpg,0,NaN,NaN,NaN,NaN,3000
77131,1,2,0,0,NaN,NaN,NaN,NA,NA,NA,NA,NA,NA,Stimuli/Practice_stims/Final_decisions/florian-wehde-iVW7mZPwd4g-unsplash.jpg,Stimuli/Practice_stims/Final_decisions/patrick-perkins-3wylDrjxH-E-unsplash.jpg,0,NaN,NaN,NaN,NaN,1500
77131,1,3,0,0,NaN,NaN,NaN,NA,NA,NA,NA,NA,NA,Stimuli/Practice_stims/Final_decisions/debby-hudson-FmCSSSGge-0-unsplash.jpg,Stimuli/Practice_stims/Final_decisions/florian-wehde-iVW7mZPwd4g-unsplash.jpg,0,NaN,NaN,NaN,NaN,2000
77131,1,4,0,0,NaN,NaN,NaN,NA,NA,NA,NA,NA,NA,Stimuli/Practice_stims/Final_decisions/yassine-khalfalli-adsQ9d_Cx0c-unsplash.jpg,Stimuli/Practice_stims/Final_decisions/debby-hudson-FmCSSSGge-0-unsplash.jpg,0,NaN,NaN,NaN,NaN,1000
77131,0,5,1,1,1,gain1,no_gain3,D,F,28,40,faces,body_parts,Stimuli/Experimental_stims/faces/erik-lucatero-d2MSDujJl2g-unsplash.jpg,Stimuli/Experimental_stims/body_parts/klara-kulikova-TcUfF24fUMY-unsplash.jpg,0,NaN,NaN,NaN,unchosen,1500
77131,0,6,1,1,1,gain3,no_gain2,B,J,20,26,outdoor_scenes,faces,Stimuli/Experimental_stims/outdoor_scenes/samsommer-vddccTqwal8-unsplash.jpg,Stimuli/Experimental_stims/faces/art-hauntington-jzY0KRJopEI-unsplash.jpg,0,NaN,NaN,NaN,chosen,1500
77131,0,7,1,1,0,no_gain4,gain5,K,H,38,25,body_parts,faces,Stimuli/Experimental_stims/body_parts/engin-akyurt-x_3gyC42btc-unsplash.jpg,Stimuli/Experimental_stims/faces/aiony-haust-jmATI5Q_YgY-unsplash.jpg,0,NaN,NaN,NaN,chosen,1000
77131,0,8,1,1,1,gain6,no_gain6,I,C,41,22,body_parts,outdoor_scenes,Stimuli/Experimental_stims/body_parts/lucaxx-freire-CacZwMexYdk-unsplash.jpg,Stimuli/Experimental_stims/outdoor_scenes/stephen-leonardi-gyIRjKPXupE-unsplash.jpg,0,NaN,NaN,NaN,chosen,1000
77131,0,9,1,1,0,no_gain1,gain6,E,I,52,41,objects,body_parts,Stimuli/Experimental_stims/objects/fabian-blank-pElSkGRA2NU-unsplash.jpg,Stimuli/Experimental_stims/body_parts/lucaxx-freire-CacZwMexYdk-unsplash.jpg,0,NaN,NaN,NaN,chosen,1000
77131,0,10,1,1,1,gain3,no_gain6,B,C,20,22,outdoor_scenes,outdoor_scenes,Stimuli/Experimental_stims/outdoor_scenes/samsommer-vddccTqwal8-unsplash.jpg,Stimuli/Experimental_stims/outdoor_scenes/stephen-leonardi-gyIRjKPXupE-unsplash.jpg,0,NaN,NaN,NaN,chosen,1000
77131,0,11,1,1,1,gain3,no_gain5,B,A,32,54,faces,objects,Stimuli/Experimental_stims/faces/justin-chen-J7Cf1Gch49E-unsplash.jpg,Stimuli/Experimental_stims/objects/jess-bailey-nOeVi8DsN8U-unsplash.jpg,0,NaN,NaN,NaN,unchosen,1000
77131,0,12,1,1,0,no_gain3,gain6,F,I,40,15,body_parts,outdoor_scenes,Stimuli/Experimental_stims/body_parts/klara-kulikova-TcUfF24fUMY-unsplash.jpg,Stimuli/Experimental_stims/outdoor_scenes/henry-be-NLF6hTe4PAg-unsplash.jpg,0,NaN,NaN,NaN,unchosen,1000
77131,0,13,1,1,1,gain2,no_gain5,L,A,24,54,faces,objects,Stimuli/Experimental_stims/faces/abstral-official-cyOKLSgkgCE-unsplash.jpg,Stimuli/Experimental_stims/objects/jess-bailey-nOeVi8DsN8U-unsplash.jpg,0,NaN,NaN,NaN,unchosen,1000
77131,0,14,1,1,1,gain4,no_gain4,G,K,18,50,outdoor_scenes,objects,Stimuli/Experimental_stims/outdoor_scenes/meng-ji-8BH_M-53CyA-unsplash.jpg,Stimuli/Experimental_stims/objects/andrew-petrov-TVJqDat4MAw-unsplash.jpg,0,NaN,NaN,NaN,unchosen,1000
77131,0,15,1,1,1,gain3,no_gain1,B,E,20,52,outdoor_scenes,objects,Stimuli/Experimental_stims/outdoor_scenes/samsommer-vddccTqwal8-unsplash.jpg,Stimuli/Experimental_stims/objects/fabian-blank-pElSkGRA2NU-unsplash.jpg,0,NaN,NaN,NaN,chosen,1000
77131,0,16,1,1,1,gain6,no_gain6,I,C,15,43,outdoor_scenes,body_parts,Stimuli/Experimental_stims/outdoor_scenes/henry-be-NLF6hTe4PAg-unsplash.jpg,Stimuli/Experimental_stims/body_parts/megan-menegay-UojxG_BJxnI-unsplash.jpg,0,NaN,NaN,NaN,unchosen,1000
77131,0,17,1,1,1,gain2,no_gain3,L,F,24,40,faces,body_parts,Stimuli/Experimental_stims/faces/abstral-official-cyOKLSgkgCE-unsplash.jpg,Stimuli/Experimental_stims/body_parts/klara-kulikova-TcUfF24fUMY-unsplash.jpg,0,NaN,NaN,NaN,unchosen,1500
77131,0,18,1,1,1,gain4,no_gain6,G,C,18,43,outdoor_scenes,body_parts,Stimuli/Experimental_stims/outdoor_scenes/meng-ji-8BH_M-53CyA-unsplash.jpg,Stimuli/Experimental_stims/body_parts/megan-menegay-UojxG_BJxnI-unsplash.jpg,0,NaN,NaN,NaN,unchosen,2000
77131,0,19,1,1,1,gain6,no_gain4,I,K,15,50,outdoor_scenes,objects,Stimuli/Experimental_stims/outdoor_scenes/henry-be-NLF6hTe4PAg-unsplash.jpg,Stimuli/Experimental_stims/objects/andrew-petrov-TVJqDat4MAw-unsplash.jpg,0,NaN,NaN,NaN,unchosen,3000
77131,0,20,1,1,0,no_gain4,gain2,K,L,50,24,objects,faces,Stimuli/Experimental_stims/objects/andrew-petrov-TVJqDat4MAw-unsplash.jpg,Stimuli/Experimental_stims/faces/abstral-official-cyOKLSgkgCE-unsplash.jpg,0,NaN,NaN,NaN,unchosen,2000
77131,0,21,1,1,0,no_gain5,gain4,A,G,13,56,outdoor_scenes,objects,Stimuli/Experimental_stims/outdoor_scenes/ashim-d-silva-S2Q5mdOrrVc-unsplash.jpg,Stimuli/Experimental_stims/objects/jonathan-greenaway-Y4hGgeiFn3s-unsplash.jpg,0,NaN,NaN,NaN,chosen,1500
77131,0,22,1,1,0,no_gain2,gain1,J,D,59,28,objects,faces,Stimuli/Experimental_stims/objects/ronaldo-arthur-vidal-Cdz_lvnl37k-unsplash.jpg,Stimuli/Experimental_stims/faces/erik-lucatero-d2MSDujJl2g-unsplash.jpg,0,NaN,NaN,NaN,unchosen,1000
77131,0,23,1,1,1,gain3,no_gain4,B,K,20,38,outdoor_scenes,body_parts,Stimuli/Experimental_stims/outdoor_scenes/samsommer-vddccTqwal8-unsplash.jpg,Stimuli/Experimental_stims/body_parts/engin-akyurt-x_3gyC42btc-unsplash.jpg,0,NaN,NaN,NaN,chosen,3500
77131,0,24,1,1,0,no_gain3,gain6,F,I,30,41,faces,body_parts,Stimuli/Experimental_stims/faces/good-faces-xmSWVeGEnJw-unsplash.jpg,Stimuli/Experimental_stims/body_parts/lucaxx-freire-CacZwMexYdk-unsplash.jpg,0,NaN,NaN,NaN,chosen,3000
77131,0,25,1,1,0,no_gain4,gain1,K,D,38,53,body_parts,objects,Stimuli/Experimental_stims/body_parts/engin-akyurt-x_3gyC42btc-unsplash.jpg,Stimuli/Experimental_stims/objects/insung-yoon-w2JtIQQXoRU-unsplash.jpg,0,NaN,NaN,NaN,chosen,1500
77131,0,26,1,1,1,gain1,no_gain3,D,F,53,30,objects,faces,Stimuli/Experimental_stims/objects/insung-yoon-w2JtIQQXoRU-unsplash.jpg,Stimuli/Experimental_stims/faces/good-faces-xmSWVeGEnJw-unsplash.jpg,0,NaN,NaN,NaN,chosen,1000
77131,0,27,1,1,0,no_gain1,gain5,E,H,52,25,objects,faces,Stimuli/Experimental_stims/objects/fabian-blank-pElSkGRA2NU-unsplash.jpg,Stimuli/Experimental_stims/faces/aiony-haust-jmATI5Q_YgY-unsplash.jpg,0,NaN,NaN,NaN,chosen,1500
77131,0,28,1,1,0,no_gain4,gain1,K,D,50,28,objects,faces,Stimuli/Experimental_stims/objects/andrew-petrov-TVJqDat4MAw-unsplash.jpg,Stimuli/Experimental_stims/faces/erik-lucatero-d2MSDujJl2g-unsplash.jpg,0,NaN,NaN,NaN,unchosen,1500
77131,0,29,1,1,0,no_gain4,gain5,K,H,50,16,objects,outdoor_scenes,Stimuli/Experimental_stims/objects/andrew-petrov-TVJqDat4MAw-unsplash.jpg,Stimuli/Experimental_stims/outdoor_scenes/jarrett-kow-1ZOyYPOBn7I-unsplash.jpg,0,NaN,NaN,NaN,unchosen,1000
77131,0,30,1,1,1,gain5,no_gain2,H,J,25,26,faces,faces,Stimuli/Experimental_stims/faces/aiony-haust-jmATI5Q_YgY-unsplash.jpg,Stimuli/Experimental_stims/faces/art-hauntington-jzY0KRJopEI-unsplash.jpg,0,NaN,NaN,NaN,chosen,1000
77131,0,31,1,1,0,no_gain5,gain3,A,B,13,20,outdoor_scenes,outdoor_scenes,Stimuli/Experimental_stims/outdoor_scenes/ashim-d-silva-S2Q5mdOrrVc-unsplash.jpg,Stimuli/Experimental_stims/outdoor_scenes/samsommer-vddccTqwal8-unsplash.jpg,0,NaN,NaN,NaN,chosen,3000
77131,0,32,1,1,0,no_gain2,gain5,J,H,59,16,objects,outdoor_scenes,Stimuli/Experimental_stims/objects/ronaldo-arthur-vidal-Cdz_lvnl37k-unsplash.jpg,Stimuli/Experimental_stims/outdoor_scenes/jarrett-kow-1ZOyYPOBn7I-unsplash.jpg,0,NaN,NaN,NaN,unchosen,1000
77131,0,33,1,1,1,gain1,no_gain1,D,E,28,45,faces,body_parts,Stimuli/Experimental_stims/faces/erik-lucatero-d2MSDujJl2g-unsplash.jpg,Stimuli/Experimental_stims/body_parts/sincerely-media-7TBFwUQA6Xk-unsplash.jpg,0,NaN,NaN,NaN,unchosen,1000
77131,0,34,1,1,1,gain4,no_gain3,G,F,18,40,outdoor_scenes,body_parts,Stimuli/Experimental_stims/outdoor_scenes/meng-ji-8BH_M-53CyA-unsplash.jpg,Stimuli/Experimental_stims/body_parts/klara-kulikova-TcUfF24fUMY-unsplash.jpg,0,NaN,NaN,NaN,unchosen,1500
77131,0,35,1,1,1,gain5,no_gain5,H,A,25,13,faces,outdoor_scenes,Stimuli/Experimental_stims/faces/aiony-haust-jmATI5Q_YgY-unsplash.jpg,Stimuli/Experimental_stims/outdoor_scenes/ashim-d-silva-S2Q5mdOrrVc-unsplash.jpg,0,NaN,NaN,NaN,chosen,2000
77131,0,36,1,1,0,no_gain6,gain2,C,L,22,47,outdoor_scenes,body_parts,Stimuli/Experimental_stims/outdoor_scenes/stephen-leonardi-gyIRjKPXupE-unsplash.jpg,Stimuli/Experimental_stims/body_parts/tucker-good-36skLT5jZcc-unsplash.jpg,0,NaN,NaN,NaN,chosen,1000
77131,0,37,1,1,1,gain4,no_gain1,G,E,56,52,objects,objects,Stimuli/Experimental_stims/objects/jonathan-greenaway-Y4hGgeiFn3s-unsplash.jpg,Stimuli/Experimental_stims/objects/fabian-blank-pElSkGRA2NU-unsplash.jpg,0,NaN,NaN,NaN,chosen,2000
77131,0,38,1,1,1,gain6,no_gain5,I,A,41,13,body_parts,outdoor_scenes,Stimuli/Experimental_stims/body_parts/lucaxx-freire-CacZwMexYdk-unsplash.jpg,Stimuli/Experimental_stims/outdoor_scenes/ashim-d-silva-S2Q5mdOrrVc-unsplash.jpg,0,NaN,NaN,NaN,chosen,3000
77131,0,39,1,1,0,no_gain1,gain3,E,B,45,32,body_parts,faces,Stimuli/Experimental_stims/body_parts/sincerely-media-7TBFwUQA6Xk-unsplash.jpg,Stimuli/Experimental_stims/faces/justin-chen-J7Cf1Gch49E-unsplash.jpg,0,NaN,NaN,NaN,unchosen,1000
77131,0,40,1,1,0,no_gain5,gain4,A,G,54,18,objects,outdoor_scenes,Stimuli/Experimental_stims/objects/jess-bailey-nOeVi8DsN8U-unsplash.jpg,Stimuli/Experimental_stims/outdoor_scenes/meng-ji-8BH_M-53CyA-unsplash.jpg,0,NaN,NaN,NaN,unchosen,3000
77131,0,41,1,1,0,no_gain4,gain4,K,G,38,56,body_parts,objects,Stimuli/Experimental_stims/body_parts/engin-akyurt-x_3gyC42btc-unsplash.jpg,Stimuli/Experimental_stims/objects/jonathan-greenaway-Y4hGgeiFn3s-unsplash.jpg,0,NaN,NaN,NaN,chosen,1000
77131,0,42,1,1,0,no_gain6,gain1,C,D,43,28,body_parts,faces,Stimuli/Experimental_stims/body_parts/megan-menegay-UojxG_BJxnI-unsplash.jpg,Stimuli/Experimental_stims/faces/erik-lucatero-d2MSDujJl2g-unsplash.jpg,0,NaN,NaN,NaN,unchosen,3000
77131,0,43,1,1,1,gain4,no_gain1,G,E,18,45,outdoor_scenes,body_parts,Stimuli/Experimental_stims/outdoor_scenes/meng-ji-8BH_M-53CyA-unsplash.jpg,Stimuli/Experimental_stims/body_parts/sincerely-media-7TBFwUQA6Xk-unsplash.jpg,0,NaN,NaN,NaN,unchosen,2000
77131,0,44,1,1,0,no_gain4,gain2,K,L,38,47,body_parts,body_parts,Stimuli/Experimental_stims/body_parts/engin-akyurt-x_3gyC42btc-unsplash.jpg,Stimuli/Experimental_stims/body_parts/tucker-good-36skLT5jZcc-unsplash.jpg,0,NaN,NaN,NaN,chosen,1500
77131,0,45,1,1,1,gain3,no_gain3,B,F,32,40,faces,body_parts,Stimuli/Experimental_stims/faces/justin-chen-J7Cf1Gch49E-unsplash.jpg,Stimuli/Experimental_stims/body_parts/klara-kulikova-TcUfF24fUMY-unsplash.jpg,0,NaN,NaN,NaN,unchosen,1000
77131,0,46,1,1,0,no_gain6,gain5,C,H,43,16,body_parts,outdoor_scenes,Stimuli/Experimental_stims/body_parts/megan-menegay-UojxG_BJxnI-unsplash.jpg,Stimuli/Experimental_stims/outdoor_scenes/jarrett-kow-1ZOyYPOBn7I-unsplash.jpg,0,NaN,NaN,NaN,unchosen,1500
77131,0,47,1,1,0,no_gain3,gain4,F,G,30,56,faces,objects,Stimuli/Experimental_stims/faces/good-faces-xmSWVeGEnJw-unsplash.jpg,Stimuli/Experimental_stims/objects/jonathan-greenaway-Y4hGgeiFn3s-unsplash.jpg,0,NaN,NaN,NaN,chosen,1000
77131,0,48,1,1,0,no_gain1,gain5,E,H,45,16,body_parts,outdoor_scenes,Stimuli/Experimental_stims/body_parts/sincerely-media-7TBFwUQA6Xk-unsplash.jpg,Stimuli/Experimental_stims/outdoor_scenes/jarrett-kow-1ZOyYPOBn7I-unsplash.jpg,0,NaN,NaN,NaN,unchosen,1500
77131,0,49,1,1,1,gain3,no_gain4,B,K,32,50,faces,objects,Stimuli/Experimental_stims/faces/justin-chen-J7Cf1Gch49E-unsplash.jpg,Stimuli/Experimental_stims/objects/andrew-petrov-TVJqDat4MAw-unsplash.jpg,0,NaN,NaN,NaN,unchosen,2000
77131,0,50,1,1,0,no_gain3,gain2,F,L,30,47,faces,body_parts,Stimuli/Experimental_stims/faces/good-faces-xmSWVeGEnJw-unsplash.jpg,Stimuli/Experimental_stims/body_parts/tucker-good-36skLT5jZcc-unsplash.jpg,0,NaN,NaN,NaN,chosen,1000
77131,0,51,1,1,1,gain4,no_gain2,G,J,18,59,outdoor_scenes,objects,Stimuli/Experimental_stims/outdoor_scenes/meng-ji-8BH_M-53CyA-unsplash.jpg,Stimuli/Experimental_stims/objects/ronaldo-arthur-vidal-Cdz_lvnl37k-unsplash.jpg,0,NaN,NaN,NaN,unchosen,1500
77131,0,52,1,1,0,no_gain6,gain1,C,D,22,53,outdoor_scenes,objects,Stimuli/Experimental_stims/outdoor_scenes/stephen-leonardi-gyIRjKPXupE-unsplash.jpg,Stimuli/Experimental_stims/objects/insung-yoon-w2JtIQQXoRU-unsplash.jpg,0,NaN,NaN,NaN,chosen,1500
77131,0,53,1,1,0,no_gain6,gain2,C,L,43,24,body_parts,faces,Stimuli/Experimental_stims/body_parts/megan-menegay-UojxG_BJxnI-unsplash.jpg,Stimuli/Experimental_stims/faces/abstral-official-cyOKLSgkgCE-unsplash.jpg,0,NaN,NaN,NaN,unchosen,2000
77131,0,54,1,1,0,no_gain3,gain5,F,H,30,25,faces,faces,Stimuli/Experimental_stims/faces/good-faces-xmSWVeGEnJw-unsplash.jpg,Stimuli/Experimental_stims/faces/aiony-haust-jmATI5Q_YgY-unsplash.jpg,0,NaN,NaN,NaN,chosen,2000
77131,0,55,1,1,1,gain4,no_gain6,G,C,56,22,objects,outdoor_scenes,Stimuli/Experimental_stims/objects/jonathan-greenaway-Y4hGgeiFn3s-unsplash.jpg,Stimuli/Experimental_stims/outdoor_scenes/stephen-leonardi-gyIRjKPXupE-unsplash.jpg,0,NaN,NaN,NaN,chosen,1000
77131,0,56,1,1,0,no_gain1,gain2,E,L,45,24,body_parts,faces,Stimuli/Experimental_stims/body_parts/sincerely-media-7TBFwUQA6Xk-unsplash.jpg,Stimuli/Experimental_stims/faces/abstral-official-cyOKLSgkgCE-unsplash.jpg,0,NaN,NaN,NaN,unchosen,2000
77131,0,57,1,1,1,gain3,no_gain2,B,J,32,59,faces,objects,Stimuli/Experimental_stims/faces/justin-chen-J7Cf1Gch49E-unsplash.jpg,Stimuli/Experimental_stims/objects/ronaldo-arthur-vidal-Cdz_lvnl37k-unsplash.jpg,0,NaN,NaN,NaN,unchosen,1000
77131,0,58,1,1,1,gain5,no_gain5,H,A,16,54,outdoor_scenes,objects,Stimuli/Experimental_stims/outdoor_scenes/jarrett-kow-1ZOyYPOBn7I-unsplash.jpg,Stimuli/Experimental_stims/objects/jess-bailey-nOeVi8DsN8U-unsplash.jpg,0,NaN,NaN,NaN,unchosen,1000
77131,0,59,1,1,0,no_gain4,gain6,K,I,38,41,body_parts,body_parts,Stimuli/Experimental_stims/body_parts/engin-akyurt-x_3gyC42btc-unsplash.jpg,Stimuli/Experimental_stims/body_parts/lucaxx-freire-CacZwMexYdk-unsplash.jpg,0,NaN,NaN,NaN,chosen,1500
77131,0,60,1,1,0,no_gain2,gain4,J,G,26,56,faces,objects,Stimuli/Experimental_stims/faces/art-hauntington-jzY0KRJopEI-unsplash.jpg,Stimuli/Experimental_stims/objects/jonathan-greenaway-Y4hGgeiFn3s-unsplash.jpg,0,NaN,NaN,NaN,chosen,2000
77131,0,61,1,1,1,gain1,no_gain5,D,A,53,13,objects,outdoor_scenes,Stimuli/Experimental_stims/objects/insung-yoon-w2JtIQQXoRU-unsplash.jpg,Stimuli/Experimental_stims/outdoor_scenes/ashim-d-silva-S2Q5mdOrrVc-unsplash.jpg,0,NaN,NaN,NaN,chosen,1000
77131,0,62,1,1,0,no_gain2,gain2,J,L,59,24,objects,faces,Stimuli/Experimental_stims/objects/ronaldo-arthur-vidal-Cdz_lvnl37k-unsplash.jpg,Stimuli/Experimental_stims/faces/abstral-official-cyOKLSgkgCE-unsplash.jpg,0,NaN,NaN,NaN,unchosen,3500
77131,0,63,1,1,0,no_gain3,gain3,F,B,30,20,faces,outdoor_scenes,Stimuli/Experimental_stims/faces/good-faces-xmSWVeGEnJw-unsplash.jpg,Stimuli/Experimental_stims/outdoor_scenes/samsommer-vddccTqwal8-unsplash.jpg,0,NaN,NaN,NaN,chosen,1500
77131,0,64,1,1,1,gain5,no_gain6,H,C,25,22,faces,outdoor_scenes,Stimuli/Experimental_stims/faces/aiony-haust-jmATI5Q_YgY-unsplash.jpg,Stimuli/Experimental_stims/outdoor_scenes/stephen-leonardi-gyIRjKPXupE-unsplash.jpg,0,NaN,NaN,NaN,chosen,2000
77131,0,65,1,1,0,no_gain5,gain6,A,I,54,15,objects,outdoor_scenes,Stimuli/Experimental_stims/objects/jess-bailey-nOeVi8DsN8U-unsplash.jpg,Stimuli/Experimental_stims/outdoor_scenes/henry-be-NLF6hTe4PAg-unsplash.jpg,0,NaN,NaN,NaN,unchosen,3500
77131,0,66,1,1,0,no_gain3,gain5,F,H,40,16,body_parts,outdoor_scenes,Stimuli/Experimental_stims/body_parts/klara-kulikova-TcUfF24fUMY-unsplash.jpg,Stimuli/Experimental_stims/outdoor_scenes/jarrett-kow-1ZOyYPOBn7I-unsplash.jpg,0,NaN,NaN,NaN,unchosen,3000
77131,0,67,1,1,0,no_gain5,gain1,A,D,54,28,objects,faces,Stimuli/Experimental_stims/objects/jess-bailey-nOeVi8DsN8U-unsplash.jpg,Stimuli/Experimental_stims/faces/erik-lucatero-d2MSDujJl2g-unsplash.jpg,0,NaN,NaN,NaN,unchosen,1500
77131,0,68,1,1,0,no_gain2,gain1,J,D,26,53,faces,objects,Stimuli/Experimental_stims/faces/art-hauntington-jzY0KRJopEI-unsplash.jpg,Stimuli/Experimental_stims/objects/insung-yoon-w2JtIQQXoRU-unsplash.jpg,0,NaN,NaN,NaN,chosen,2000
77131,0,69,1,1,1,gain1,no_gain1,D,E,53,52,objects,objects,Stimuli/Experimental_stims/objects/insung-yoon-w2JtIQQXoRU-unsplash.jpg,Stimuli/Experimental_stims/objects/fabian-blank-pElSkGRA2NU-unsplash.jpg,0,NaN,NaN,NaN,chosen,3000
77131,0,70,1,1,1,gain2,no_gain1,L,E,47,52,body_parts,objects,Stimuli/Experimental_stims/body_parts/tucker-good-36skLT5jZcc-unsplash.jpg,Stimuli/Experimental_stims/objects/fabian-blank-pElSkGRA2NU-unsplash.jpg,0,NaN,NaN,NaN,chosen,1500
77131,0,71,1,1,1,gain2,no_gain2,L,J,47,26,body_parts,faces,Stimuli/Experimental_stims/body_parts/tucker-good-36skLT5jZcc-unsplash.jpg,Stimuli/Experimental_stims/faces/art-hauntington-jzY0KRJopEI-unsplash.jpg,0,NaN,NaN,NaN,chosen,3500
77131,0,72,1,1,1,gain6,no_gain2,I,J,41,26,body_parts,faces,Stimuli/Experimental_stims/body_parts/lucaxx-freire-CacZwMexYdk-unsplash.jpg,Stimuli/Experimental_stims/faces/art-hauntington-jzY0KRJopEI-unsplash.jpg,0,NaN,NaN,NaN,chosen,1000
77131,0,73,1,1,1,gain6,no_gain1,I,E,15,45,outdoor_scenes,body_parts,Stimuli/Experimental_stims/outdoor_scenes/henry-be-NLF6hTe4PAg-unsplash.jpg,Stimuli/Experimental_stims/body_parts/sincerely-media-7TBFwUQA6Xk-unsplash.jpg,0,NaN,NaN,NaN,unchosen,1500
77131,0,74,1,1,1,gain2,no_gain5,L,A,47,13,body_parts,outdoor_scenes,Stimuli/Experimental_stims/body_parts/tucker-good-36skLT5jZcc-unsplash.jpg,Stimuli/Experimental_stims/outdoor_scenes/ashim-d-silva-S2Q5mdOrrVc-unsplash.jpg,0,NaN,NaN,NaN,chosen,1500
77131,0,75,1,1,1,gain3,no_gain6,B,C,32,43,faces,body_parts,Stimuli/Experimental_stims/faces/justin-chen-J7Cf1Gch49E-unsplash.jpg,Stimuli/Experimental_stims/body_parts/megan-menegay-UojxG_BJxnI-unsplash.jpg,0,NaN,NaN,NaN,unchosen,1000
77131,0,76,1,1,0,no_gain2,gain6,J,I,59,15,objects,outdoor_scenes,Stimuli/Experimental_stims/objects/ronaldo-arthur-vidal-Cdz_lvnl37k-unsplash.jpg,Stimuli/Experimental_stims/outdoor_scenes/henry-be-NLF6hTe4PAg-unsplash.jpg,0,NaN,NaN,NaN,unchosen,1500
77131,0,77,2,2,0,no_gain4,gain4,K,G,50,18,objects,outdoor_scenes,Stimuli/Experimental_stims/objects/andrew-petrov-TVJqDat4MAw-unsplash.jpg,Stimuli/Experimental_stims/outdoor_scenes/meng-ji-8BH_M-53CyA-unsplash.jpg,0,NaN,NaN,NaN,unchosen,2000
77131,0,78,2,2,1,gain1,no_gain4,D,K,53,38,objects,body_parts,Stimuli/Experimental_stims/objects/insung-yoon-w2JtIQQXoRU-unsplash.jpg,Stimuli/Experimental_stims/body_parts/engin-akyurt-x_3gyC42btc-unsplash.jpg,0,NaN,NaN,NaN,chosen,1000
77131,0,79,2,2,1,gain4,no_gain1,G,E,56,52,objects,objects,Stimuli/Experimental_stims/objects/jonathan-greenaway-Y4hGgeiFn3s-unsplash.jpg,Stimuli/Experimental_stims/objects/fabian-blank-pElSkGRA2NU-unsplash.jpg,0,NaN,NaN,NaN,chosen,1000
77131,0,80,2,2,0,no_gain4,gain5,K,H,38,25,body_parts,faces,Stimuli/Experimental_stims/body_parts/engin-akyurt-x_3gyC42btc-unsplash.jpg,Stimuli/Experimental_stims/faces/aiony-haust-jmATI5Q_YgY-unsplash.jpg,0,NaN,NaN,NaN,chosen,2000
77131,0,81,2,2,0,no_gain6,gain6,C,I,43,15,body_parts,outdoor_scenes,Stimuli/Experimental_stims/body_parts/megan-menegay-UojxG_BJxnI-unsplash.jpg,Stimuli/Experimental_stims/outdoor_scenes/henry-be-NLF6hTe4PAg-unsplash.jpg,0,NaN,NaN,NaN,unchosen,1500
77131,0,82,2,2,0,no_gain1,gain1,E,D,52,53,objects,objects,Stimuli/Experimental_stims/objects/fabian-blank-pElSkGRA2NU-unsplash.jpg,Stimuli/Experimental_stims/objects/insung-yoon-w2JtIQQXoRU-unsplash.jpg,0,NaN,NaN,NaN,chosen,1500
77131,0,83,2,2,1,gain4,no_gain6,G,C,18,43,outdoor_scenes,body_parts,Stimuli/Experimental_stims/outdoor_scenes/meng-ji-8BH_M-53CyA-unsplash.jpg,Stimuli/Experimental_stims/body_parts/megan-menegay-UojxG_BJxnI-unsplash.jpg,0,NaN,NaN,NaN,unchosen,1000
77131,0,84,2,2,1,gain3,no_gain1,B,E,32,45,faces,body_parts,Stimuli/Experimental_stims/faces/justin-chen-J7Cf1Gch49E-unsplash.jpg,Stimuli/Experimental_stims/body_parts/sincerely-media-7TBFwUQA6Xk-unsplash.jpg,0,NaN,NaN,NaN,unchosen,1000
77131,0,85,2,2,1,gain3,no_gain6,B,C,32,43,faces,body_parts,Stimuli/Experimental_stims/faces/justin-chen-J7Cf1Gch49E-unsplash.jpg,Stimuli/Experimental_stims/body_parts/megan-menegay-UojxG_BJxnI-unsplash.jpg,0,NaN,NaN,NaN,unchosen,1500
77131,0,86,2,2,1,gain1,no_gain3,D,F,53,30,objects,faces,Stimuli/Experimental_stims/objects/insung-yoon-w2JtIQQXoRU-unsplash.jpg,Stimuli/Experimental_stims/faces/good-faces-xmSWVeGEnJw-unsplash.jpg,0,NaN,NaN,NaN,chosen,3000
77131,0,87,2,2,0,no_gain4,gain3,K,B,38,20,body_parts,outdoor_scenes,Stimuli/Experimental_stims/body_parts/engin-akyurt-x_3gyC42btc-unsplash.jpg,Stimuli/Experimental_stims/outdoor_scenes/samsommer-vddccTqwal8-unsplash.jpg,0,NaN,NaN,NaN,chosen,1500
77131,0,88,2,2,0,no_gain2,gain6,J,I,26,41,faces,body_parts,Stimuli/Experimental_stims/faces/art-hauntington-jzY0KRJopEI-unsplash.jpg,Stimuli/Experimental_stims/body_parts/lucaxx-freire-CacZwMexYdk-unsplash.jpg,0,NaN,NaN,NaN,chosen,3000
77131,0,89,2,2,0,no_gain6,gain2,C,L,22,47,outdoor_scenes,body_parts,Stimuli/Experimental_stims/outdoor_scenes/stephen-leonardi-gyIRjKPXupE-unsplash.jpg,Stimuli/Experimental_stims/body_parts/tucker-good-36skLT5jZcc-unsplash.jpg,0,NaN,NaN,NaN,chosen,1000
77131,0,90,2,2,0,no_gain6,gain1,C,D,43,28,body_parts,faces,Stimuli/Experimental_stims/body_parts/megan-menegay-UojxG_BJxnI-unsplash.jpg,Stimuli/Experimental_stims/faces/erik-lucatero-d2MSDujJl2g-unsplash.jpg,0,NaN,NaN,NaN,unchosen,3000
77131,0,91,2,2,1,gain6,no_gain2,I,J,15,59,outdoor_scenes,objects,Stimuli/Experimental_stims/outdoor_scenes/henry-be-NLF6hTe4PAg-unsplash.jpg,Stimuli/Experimental_stims/objects/ronaldo-arthur-vidal-Cdz_lvnl37k-unsplash.jpg,0,NaN,NaN,NaN,unchosen,1000
77131,0,92,2,2,0,no_gain6,gain2,C,L,43,24,body_parts,faces,Stimuli/Experimental_stims/body_parts/megan-menegay-UojxG_BJxnI-unsplash.jpg,Stimuli/Experimental_stims/faces/abstral-official-cyOKLSgkgCE-unsplash.jpg,0,NaN,NaN,NaN,unchosen,1500
77131,0,93,2,2,1,gain2,no_gain3,L,F,24,40,faces,body_parts,Stimuli/Experimental_stims/faces/abstral-official-cyOKLSgkgCE-unsplash.jpg,Stimuli/Experimental_stims/body_parts/klara-kulikova-TcUfF24fUMY-unsplash.jpg,0,NaN,NaN,NaN,unchosen,3500
77131,0,94,2,2,0,no_gain2,gain1,J,D,59,28,objects,faces,Stimuli/Experimental_stims/objects/ronaldo-arthur-vidal-Cdz_lvnl37k-unsplash.jpg,Stimuli/Experimental_stims/faces/erik-lucatero-d2MSDujJl2g-unsplash.jpg,0,NaN,NaN,NaN,unchosen,1500
77131,0,95,2,2,0,no_gain4,gain4,K,G,38,56,body_parts,objects,Stimuli/Experimental_stims/body_parts/engin-akyurt-x_3gyC42btc-unsplash.jpg,Stimuli/Experimental_stims/objects/jonathan-greenaway-Y4hGgeiFn3s-unsplash.jpg,0,NaN,NaN,NaN,chosen,2000
77131,0,96,2,2,0,no_gain4,gain2,K,L,50,24,objects,faces,Stimuli/Experimental_stims/objects/andrew-petrov-TVJqDat4MAw-unsplash.jpg,Stimuli/Experimental_stims/faces/abstral-official-cyOKLSgkgCE-unsplash.jpg,0,NaN,NaN,NaN,unchosen,2000
77131,0,97,2,2,0,no_gain2,gain3,J,B,26,20,faces,outdoor_scenes,Stimuli/Experimental_stims/faces/art-hauntington-jzY0KRJopEI-unsplash.jpg,Stimuli/Experimental_stims/outdoor_scenes/samsommer-vddccTqwal8-unsplash.jpg,0,NaN,NaN,NaN,chosen,1000
77131,0,98,2,2,0,no_gain5,gain3,A,B,13,20,outdoor_scenes,outdoor_scenes,Stimuli/Experimental_stims/outdoor_scenes/ashim-d-silva-S2Q5mdOrrVc-unsplash.jpg,Stimuli/Experimental_stims/outdoor_scenes/samsommer-vddccTqwal8-unsplash.jpg,0,NaN,NaN,NaN,chosen,1500
77131,0,99,2,2,1,gain4,no_gain3,G,F,18,40,outdoor_scenes,body_parts,Stimuli/Experimental_stims/outdoor_scenes/meng-ji-8BH_M-53CyA-unsplash.jpg,Stimuli/Experimental_stims/body_parts/klara-kulikova-TcUfF24fUMY-unsplash.jpg,0,NaN,NaN,NaN,unchosen,1000
77131,0,100,2,2,1,gain5,no_gain2,H,J,16,59,outdoor_scenes,objects,Stimuli/Experimental_stims/outdoor_scenes/jarrett-kow-1ZOyYPOBn7I-unsplash.jpg,Stimuli/Experimental_stims/objects/ronaldo-arthur-vidal-Cdz_lvnl37k-unsplash.jpg,0,NaN,NaN,NaN,unchosen,2000
77131,0,101,2,2,1,gain6,no_gain5,I,A,41,13,body_parts,outdoor_scenes,Stimuli/Experimental_stims/body_parts/lucaxx-freire-CacZwMexYdk-unsplash.jpg,Stimuli/Experimental_stims/outdoor_scenes/ashim-d-silva-S2Q5mdOrrVc-unsplash.jpg,0,NaN,NaN,NaN,chosen,2000
77131,0,102,2,2,0,no_gain5,gain4,A,G,13,56,outdoor_scenes,objects,Stimuli/Experimental_stims/outdoor_scenes/ashim-d-silva-S2Q5mdOrrVc-unsplash.jpg,Stimuli/Experimental_stims/objects/jonathan-greenaway-Y4hGgeiFn3s-unsplash.jpg,0,NaN,NaN,NaN,chosen,3500
77131,0,103,2,2,1,gain5,no_gain2,H,J,25,26,faces,faces,Stimuli/Experimental_stims/faces/aiony-haust-jmATI5Q_YgY-unsplash.jpg,Stimuli/Experimental_stims/faces/art-hauntington-jzY0KRJopEI-unsplash.jpg,0,NaN,NaN,NaN,chosen,3000
77131,0,104,2,2,0,no_gain6,gain6,C,I,22,41,outdoor_scenes,body_parts,Stimuli/Experimental_stims/outdoor_scenes/stephen-leonardi-gyIRjKPXupE-unsplash.jpg,Stimuli/Experimental_stims/body_parts/lucaxx-freire-CacZwMexYdk-unsplash.jpg,0,NaN,NaN,NaN,chosen,1000
77131,0,105,2,2,1,gain6,no_gain1,I,E,15,45,outdoor_scenes,body_parts,Stimuli/Experimental_stims/outdoor_scenes/henry-be-NLF6hTe4PAg-unsplash.jpg,Stimuli/Experimental_stims/body_parts/sincerely-media-7TBFwUQA6Xk-unsplash.jpg,0,NaN,NaN,NaN,unchosen,2000
77131,0,106,2,2,1,gain5,no_gain3,H,F,16,40,outdoor_scenes,body_parts,Stimuli/Experimental_stims/outdoor_scenes/jarrett-kow-1ZOyYPOBn7I-unsplash.jpg,Stimuli/Experimental_stims/body_parts/klara-kulikova-TcUfF24fUMY-unsplash.jpg,0,NaN,NaN,NaN,unchosen,1000
77131,0,107,2,2,0,no_gain1,gain6,E,I,52,41,objects,body_parts,Stimuli/Experimental_stims/objects/fabian-blank-pElSkGRA2NU-unsplash.jpg,Stimuli/Experimental_stims/body_parts/lucaxx-freire-CacZwMexYdk-unsplash.jpg,0,NaN,NaN,NaN,chosen,1000
77131,0,108,2,2,1,gain2,no_gain5,L,A,24,54,faces,objects,Stimuli/Experimental_stims/faces/abstral-official-cyOKLSgkgCE-unsplash.jpg,Stimuli/Experimental_stims/objects/jess-bailey-nOeVi8DsN8U-unsplash.jpg,0,NaN,NaN,NaN,unchosen,3000
77131,0,109,2,2,0,no_gain6,gain4,C,G,22,56,outdoor_scenes,objects,Stimuli/Experimental_stims/outdoor_scenes/stephen-leonardi-gyIRjKPXupE-unsplash.jpg,Stimuli/Experimental_stims/objects/jonathan-greenaway-Y4hGgeiFn3s-unsplash.jpg,0,NaN,NaN,NaN,chosen,1000
77131,0,110,2,2,1,gain2,no_gain3,L,F,47,30,body_parts,faces,Stimuli/Experimental_stims/body_parts/tucker-good-36skLT5jZcc-unsplash.jpg,Stimuli/Experimental_stims/faces/good-faces-xmSWVeGEnJw-unsplash.jpg,0,NaN,NaN,NaN,chosen,1000
77131,0,111,2,2,1,gain4,no_gain2,G,J,18,59,outdoor_scenes,objects,Stimuli/Experimental_stims/outdoor_scenes/meng-ji-8BH_M-53CyA-unsplash.jpg,Stimuli/Experimental_stims/objects/ronaldo-arthur-vidal-Cdz_lvnl37k-unsplash.jpg,0,NaN,NaN,NaN,unchosen,1000
77131,0,112,2,2,0,no_gain6,gain1,C,D,22,53,outdoor_scenes,objects,Stimuli/Experimental_stims/outdoor_scenes/stephen-leonardi-gyIRjKPXupE-unsplash.jpg,Stimuli/Experimental_stims/objects/insung-yoon-w2JtIQQXoRU-unsplash.jpg,0,NaN,NaN,NaN,chosen,1500
77131,0,113,2,2,0,no_gain5,gain1,A,D,54,28,objects,faces,Stimuli/Experimental_stims/objects/jess-bailey-nOeVi8DsN8U-unsplash.jpg,Stimuli/Experimental_stims/faces/erik-lucatero-d2MSDujJl2g-unsplash.jpg,0,NaN,NaN,NaN,unchosen,3500
77131,0,114,2,2,0,no_gain5,gain6,A,I,54,15,objects,outdoor_scenes,Stimuli/Experimental_stims/objects/jess-bailey-nOeVi8DsN8U-unsplash.jpg,Stimuli/Experimental_stims/outdoor_scenes/henry-be-NLF6hTe4PAg-unsplash.jpg,0,NaN,NaN,NaN,unchosen,1000
77131,0,115,2,2,0,no_gain5,gain1,A,D,13,53,outdoor_scenes,objects,Stimuli/Experimental_stims/outdoor_scenes/ashim-d-silva-S2Q5mdOrrVc-unsplash.jpg,Stimuli/Experimental_stims/objects/insung-yoon-w2JtIQQXoRU-unsplash.jpg,0,NaN,NaN,NaN,chosen,1000
77131,0,116,2,2,1,gain5,no_gain1,H,E,25,52,faces,objects,Stimuli/Experimental_stims/faces/aiony-haust-jmATI5Q_YgY-unsplash.jpg,Stimuli/Experimental_stims/objects/fabian-blank-pElSkGRA2NU-unsplash.jpg,0,NaN,NaN,NaN,chosen,1500
77131,0,117,2,2,0,no_gain2,gain4,J,G,26,56,faces,objects,Stimuli/Experimental_stims/faces/art-hauntington-jzY0KRJopEI-unsplash.jpg,Stimuli/Experimental_stims/objects/jonathan-greenaway-Y4hGgeiFn3s-unsplash.jpg,0,NaN,NaN,NaN,chosen,2000
77131,0,118,2,2,0,no_gain5,gain5,A,H,54,16,objects,outdoor_scenes,Stimuli/Experimental_stims/objects/jess-bailey-nOeVi8DsN8U-unsplash.jpg,Stimuli/Experimental_stims/outdoor_scenes/jarrett-kow-1ZOyYPOBn7I-unsplash.jpg,0,NaN,NaN,NaN,unchosen,1000
77131,0,119,2,2,1,gain4,no_gain3,G,F,56,30,objects,faces,Stimuli/Experimental_stims/objects/jonathan-greenaway-Y4hGgeiFn3s-unsplash.jpg,Stimuli/Experimental_stims/faces/good-faces-xmSWVeGEnJw-unsplash.jpg,0,NaN,NaN,NaN,chosen,1000
77131,0,120,2,2,1,gain4,no_gain5,G,A,18,54,outdoor_scenes,objects,Stimuli/Experimental_stims/outdoor_scenes/meng-ji-8BH_M-53CyA-unsplash.jpg,Stimuli/Experimental_stims/objects/jess-bailey-nOeVi8DsN8U-unsplash.jpg,0,NaN,NaN,NaN,unchosen,1500
77131,0,121,2,2,1,gain2,no_gain4,L,K,47,38,body_parts,body_parts,Stimuli/Experimental_stims/body_parts/tucker-good-36skLT5jZcc-unsplash.jpg,Stimuli/Experimental_stims/body_parts/engin-akyurt-x_3gyC42btc-unsplash.jpg,0,NaN,NaN,NaN,chosen,1500
77131,0,122,2,2,0,no_gain6,gain5,C,H,22,25,outdoor_scenes,faces,Stimuli/Experimental_stims/outdoor_scenes/stephen-leonardi-gyIRjKPXupE-unsplash.jpg,Stimuli/Experimental_stims/faces/aiony-haust-jmATI5Q_YgY-unsplash.jpg,0,NaN,NaN,NaN,chosen,1500
77131,0,123,2,2,1,gain3,no_gain6,B,C,20,22,outdoor_scenes,outdoor_scenes,Stimuli/Experimental_stims/outdoor_scenes/samsommer-vddccTqwal8-unsplash.jpg,Stimuli/Experimental_stims/outdoor_scenes/stephen-leonardi-gyIRjKPXupE-unsplash.jpg,0,NaN,NaN,NaN,chosen,3000
77131,0,124,2,2,1,gain3,no_gain1,B,E,20,52,outdoor_scenes,objects,Stimuli/Experimental_stims/outdoor_scenes/samsommer-vddccTqwal8-unsplash.jpg,Stimuli/Experimental_stims/objects/fabian-blank-pElSkGRA2NU-unsplash.jpg,0,NaN,NaN,NaN,chosen,3500
77131,0,125,2,2,1,gain5,no_gain1,H,E,16,45,outdoor_scenes,body_parts,Stimuli/Experimental_stims/outdoor_scenes/jarrett-kow-1ZOyYPOBn7I-unsplash.jpg,Stimuli/Experimental_stims/body_parts/sincerely-media-7TBFwUQA6Xk-unsplash.jpg,0,NaN,NaN,NaN,unchosen,1500
77131,0,126,2,2,1,gain2,no_gain1,L,E,47,52,body_parts,objects,Stimuli/Experimental_stims/body_parts/tucker-good-36skLT5jZcc-unsplash.jpg,Stimuli/Experimental_stims/objects/fabian-blank-pElSkGRA2NU-unsplash.jpg,0,NaN,NaN,NaN,chosen,1500
77131,0,127,2,2,0,no_gain3,gain6,F,I,40,15,body_parts,outdoor_scenes,Stimuli/Experimental_stims/body_parts/klara-kulikova-TcUfF24fUMY-unsplash.jpg,Stimuli/Experimental_stims/outdoor_scenes/henry-be-NLF6hTe4PAg-unsplash.jpg,0,NaN,NaN,NaN,unchosen,2000
77131,0,128,2,2,1,gain5,no_gain3,H,F,25,30,faces,faces,Stimuli/Experimental_stims/faces/aiony-haust-jmATI5Q_YgY-unsplash.jpg,Stimuli/Experimental_stims/faces/good-faces-xmSWVeGEnJw-unsplash.jpg,0,NaN,NaN,NaN,chosen,1000
77131,0,129,2,2,1,gain3,no_gain5,B,A,32,54,faces,objects,Stimuli/Experimental_stims/faces/justin-chen-J7Cf1Gch49E-unsplash.jpg,Stimuli/Experimental_stims/objects/jess-bailey-nOeVi8DsN8U-unsplash.jpg,0,NaN,NaN,NaN,unchosen,3000
77131,0,130,2,2,1,gain2,no_gain2,L,J,47,26,body_parts,faces,Stimuli/Experimental_stims/body_parts/tucker-good-36skLT5jZcc-unsplash.jpg,Stimuli/Experimental_stims/faces/art-hauntington-jzY0KRJopEI-unsplash.jpg,0,NaN,NaN,NaN,chosen,1000
77131,0,131,2,2,0,no_gain6,gain5,C,H,43,16,body_parts,outdoor_scenes,Stimuli/Experimental_stims/body_parts/megan-menegay-UojxG_BJxnI-unsplash.jpg,Stimuli/Experimental_stims/outdoor_scenes/jarrett-kow-1ZOyYPOBn7I-unsplash.jpg,0,NaN,NaN,NaN,unchosen,1500
77131,0,132,2,2,0,no_gain3,gain1,F,D,40,28,body_parts,faces,Stimuli/Experimental_stims/body_parts/klara-kulikova-TcUfF24fUMY-unsplash.jpg,Stimuli/Experimental_stims/faces/erik-lucatero-d2MSDujJl2g-unsplash.jpg,0,NaN,NaN,NaN,unchosen,1000
77131,0,133,2,2,1,gain6,no_gain4,I,K,41,38,body_parts,body_parts,Stimuli/Experimental_stims/body_parts/lucaxx-freire-CacZwMexYdk-unsplash.jpg,Stimuli/Experimental_stims/body_parts/engin-akyurt-x_3gyC42btc-unsplash.jpg,0,NaN,NaN,NaN,chosen,1500
77131,0,134,2,2,0,no_gain5,gain2,A,L,13,47,outdoor_scenes,body_parts,Stimuli/Experimental_stims/outdoor_scenes/ashim-d-silva-S2Q5mdOrrVc-unsplash.jpg,Stimuli/Experimental_stims/body_parts/tucker-good-36skLT5jZcc-unsplash.jpg,0,NaN,NaN,NaN,chosen,2000
77131,0,135,2,2,1,gain3,no_gain2,B,J,32,59,faces,objects,Stimuli/Experimental_stims/faces/justin-chen-J7Cf1Gch49E-unsplash.jpg,Stimuli/Experimental_stims/objects/ronaldo-arthur-vidal-Cdz_lvnl37k-unsplash.jpg,0,NaN,NaN,NaN,unchosen,1500
77131,0,136,2,2,1,gain3,no_gain4,B,K,32,50,faces,objects,Stimuli/Experimental_stims/faces/justin-chen-J7Cf1Gch49E-unsplash.jpg,Stimuli/Experimental_stims/objects/andrew-petrov-TVJqDat4MAw-unsplash.jpg,0,NaN,NaN,NaN,unchosen,1000
77131,0,137,2,2,1,gain4,no_gain1,G,E,18,45,outdoor_scenes,body_parts,Stimuli/Experimental_stims/outdoor_scenes/meng-ji-8BH_M-53CyA-unsplash.jpg,Stimuli/Experimental_stims/body_parts/sincerely-media-7TBFwUQA6Xk-unsplash.jpg,0,NaN,NaN,NaN,unchosen,1500
77131,0,138,2,2,0,no_gain3,gain3,F,B,40,32,body_parts,faces,Stimuli/Experimental_stims/body_parts/klara-kulikova-TcUfF24fUMY-unsplash.jpg,Stimuli/Experimental_stims/faces/justin-chen-J7Cf1Gch49E-unsplash.jpg,0,NaN,NaN,NaN,unchosen,1000
77131,0,139,2,2,0,no_gain2,gain2,J,L,59,24,objects,faces,Stimuli/Experimental_stims/objects/ronaldo-arthur-vidal-Cdz_lvnl37k-unsplash.jpg,Stimuli/Experimental_stims/faces/abstral-official-cyOKLSgkgCE-unsplash.jpg,0,NaN,NaN,NaN,unchosen,1000
77131,0,140,2,2,0,no_gain1,gain2,E,L,45,24,body_parts,faces,Stimuli/Experimental_stims/body_parts/sincerely-media-7TBFwUQA6Xk-unsplash.jpg,Stimuli/Experimental_stims/faces/abstral-official-cyOKLSgkgCE-unsplash.jpg,0,NaN,NaN,NaN,unchosen,2000
77131,0,141,2,2,1,gain1,no_gain1,D,E,28,45,faces,body_parts,Stimuli/Experimental_stims/faces/erik-lucatero-d2MSDujJl2g-unsplash.jpg,Stimuli/Experimental_stims/body_parts/sincerely-media-7TBFwUQA6Xk-unsplash.jpg,0,NaN,NaN,NaN,unchosen,3000
77131,0,142,2,2,1,gain6,no_gain3,I,F,41,30,body_parts,faces,Stimuli/Experimental_stims/body_parts/lucaxx-freire-CacZwMexYdk-unsplash.jpg,Stimuli/Experimental_stims/faces/good-faces-xmSWVeGEnJw-unsplash.jpg,0,NaN,NaN,NaN,chosen,1500
77131,0,143,2,2,0,no_gain3,gain3,F,B,30,20,faces,outdoor_scenes,Stimuli/Experimental_stims/faces/good-faces-xmSWVeGEnJw-unsplash.jpg,Stimuli/Experimental_stims/outdoor_scenes/samsommer-vddccTqwal8-unsplash.jpg,0,NaN,NaN,NaN,chosen,2000
77131,0,144,2,2,1,gain5,no_gain5,H,A,25,13,faces,outdoor_scenes,Stimuli/Experimental_stims/faces/aiony-haust-jmATI5Q_YgY-unsplash.jpg,Stimuli/Experimental_stims/outdoor_scenes/ashim-d-silva-S2Q5mdOrrVc-unsplash.jpg,0,NaN,NaN,NaN,chosen,1000
77131,0,145,2,2,0,no_gain4,gain5,K,H,50,16,objects,outdoor_scenes,Stimuli/Experimental_stims/objects/andrew-petrov-TVJqDat4MAw-unsplash.jpg,Stimuli/Experimental_stims/outdoor_scenes/jarrett-kow-1ZOyYPOBn7I-unsplash.jpg,0,NaN,NaN,NaN,unchosen,1500
77131,0,146,2,2,1,gain1,no_gain2,D,J,53,26,objects,faces,Stimuli/Experimental_stims/objects/insung-yoon-w2JtIQQXoRU-unsplash.jpg,Stimuli/Experimental_stims/faces/art-hauntington-jzY0KRJopEI-unsplash.jpg,0,NaN,NaN,NaN,chosen,1000
77131,0,147,2,2,0,no_gain4,gain1,K,D,50,28,objects,faces,Stimuli/Experimental_stims/objects/andrew-petrov-TVJqDat4MAw-unsplash.jpg,Stimuli/Experimental_stims/faces/erik-lucatero-d2MSDujJl2g-unsplash.jpg,0,NaN,NaN,NaN,unchosen,1000
77131,0,148,2,2,0,no_gain4,gain6,K,I,50,15,objects,outdoor_scenes,Stimuli/Experimental_stims/objects/andrew-petrov-TVJqDat4MAw-unsplash.jpg,Stimuli/Experimental_stims/outdoor_scenes/henry-be-NLF6hTe4PAg-unsplash.jpg,0,NaN,NaN,NaN,unchosen,1000
77131,0,149,3,3,0,no_gain6,gain3,C,B,43,32,body_parts,faces,Stimuli/Experimental_stims/body_parts/megan-menegay-UojxG_BJxnI-unsplash.jpg,Stimuli/Experimental_stims/faces/justin-chen-J7Cf1Gch49E-unsplash.jpg,0,NaN,NaN,NaN,unchosen,1000
77131,0,150,3,3,0,no_gain3,gain5,F,H,40,16,body_parts,outdoor_scenes,Stimuli/Experimental_stims/body_parts/klara-kulikova-TcUfF24fUMY-unsplash.jpg,Stimuli/Experimental_stims/outdoor_scenes/jarrett-kow-1ZOyYPOBn7I-unsplash.jpg,0,NaN,NaN,NaN,unchosen,3000
77131,0,151,3,3,0,no_gain2,gain3,J,B,59,32,objects,faces,Stimuli/Experimental_stims/objects/ronaldo-arthur-vidal-Cdz_lvnl37k-unsplash.jpg,Stimuli/Experimental_stims/faces/justin-chen-J7Cf1Gch49E-unsplash.jpg,0,NaN,NaN,NaN,unchosen,2000
77131,0,152,3,3,0,no_gain1,gain2,E,L,45,24,body_parts,faces,Stimuli/Experimental_stims/body_parts/sincerely-media-7TBFwUQA6Xk-unsplash.jpg,Stimuli/Experimental_stims/faces/abstral-official-cyOKLSgkgCE-unsplash.jpg,0,NaN,NaN,NaN,unchosen,1000
77131,0,153,3,3,0,no_gain5,gain4,A,G,13,56,outdoor_scenes,objects,Stimuli/Experimental_stims/outdoor_scenes/ashim-d-silva-S2Q5mdOrrVc-unsplash.jpg,Stimuli/Experimental_stims/objects/jonathan-greenaway-Y4hGgeiFn3s-unsplash.jpg,0,NaN,NaN,NaN,chosen,2000
77131,0,154,3,3,0,no_gain4,gain1,K,D,38,53,body_parts,objects,Stimuli/Experimental_stims/body_parts/engin-akyurt-x_3gyC42btc-unsplash.jpg,Stimuli/Experimental_stims/objects/insung-yoon-w2JtIQQXoRU-unsplash.jpg,0,NaN,NaN,NaN,chosen,1500
77131,0,155,3,3,1,gain4,no_gain4,G,K,18,50,outdoor_scenes,objects,Stimuli/Experimental_stims/outdoor_scenes/meng-ji-8BH_M-53CyA-unsplash.jpg,Stimuli/Experimental_stims/objects/andrew-petrov-TVJqDat4MAw-unsplash.jpg,0,NaN,NaN,NaN,unchosen,2000
77131,0,156,3,3,0,no_gain6,gain3,C,B,22,20,outdoor_scenes,outdoor_scenes,Stimuli/Experimental_stims/outdoor_scenes/stephen-leonardi-gyIRjKPXupE-unsplash.jpg,Stimuli/Experimental_stims/outdoor_scenes/samsommer-vddccTqwal8-unsplash.jpg,0,NaN,NaN,NaN,chosen,1500
77131,0,157,3,3,0,no_gain2,gain4,J,G,59,18,objects,outdoor_scenes,Stimuli/Experimental_stims/objects/ronaldo-arthur-vidal-Cdz_lvnl37k-unsplash.jpg,Stimuli/Experimental_stims/outdoor_scenes/meng-ji-8BH_M-53CyA-unsplash.jpg,0,NaN,NaN,NaN,unchosen,3000
77131,0,158,3,3,1,gain4,no_gain6,G,C,56,22,objects,outdoor_scenes,Stimuli/Experimental_stims/objects/jonathan-greenaway-Y4hGgeiFn3s-unsplash.jpg,Stimuli/Experimental_stims/outdoor_scenes/stephen-leonardi-gyIRjKPXupE-unsplash.jpg,0,NaN,NaN,NaN,chosen,3000
77131,0,159,3,3,1,gain1,no_gain6,D,C,28,43,faces,body_parts,Stimuli/Experimental_stims/faces/erik-lucatero-d2MSDujJl2g-unsplash.jpg,Stimuli/Experimental_stims/body_parts/megan-menegay-UojxG_BJxnI-unsplash.jpg,0,NaN,NaN,NaN,unchosen,1500
77131,0,160,3,3,1,gain5,no_gain4,H,K,16,50,outdoor_scenes,objects,Stimuli/Experimental_stims/outdoor_scenes/jarrett-kow-1ZOyYPOBn7I-unsplash.jpg,Stimuli/Experimental_stims/objects/andrew-petrov-TVJqDat4MAw-unsplash.jpg,0,NaN,NaN,NaN,unchosen,1000
77131,0,161,3,3,0,no_gain1,gain5,E,H,45,16,body_parts,outdoor_scenes,Stimuli/Experimental_stims/body_parts/sincerely-media-7TBFwUQA6Xk-unsplash.jpg,Stimuli/Experimental_stims/outdoor_scenes/jarrett-kow-1ZOyYPOBn7I-unsplash.jpg,0,NaN,NaN,NaN,unchosen,1500
77131,0,162,3,3,0,no_gain5,gain5,A,H,13,25,outdoor_scenes,faces,Stimuli/Experimental_stims/outdoor_scenes/ashim-d-silva-S2Q5mdOrrVc-unsplash.jpg,Stimuli/Experimental_stims/faces/aiony-haust-jmATI5Q_YgY-unsplash.jpg,0,NaN,NaN,NaN,chosen,1000
77131,0,163,3,3,0,no_gain1,gain3,E,B,45,32,body_parts,faces,Stimuli/Experimental_stims/body_parts/sincerely-media-7TBFwUQA6Xk-unsplash.jpg,Stimuli/Experimental_stims/faces/justin-chen-J7Cf1Gch49E-unsplash.jpg,0,NaN,NaN,NaN,unchosen,1500
77131,0,164,3,3,1,gain2,no_gain6,L,C,24,43,faces,body_parts,Stimuli/Experimental_stims/faces/abstral-official-cyOKLSgkgCE-unsplash.jpg,Stimuli/Experimental_stims/body_parts/megan-menegay-UojxG_BJxnI-unsplash.jpg,0,NaN,NaN,NaN,unchosen,1000
77131,0,165,3,3,0,no_gain5,gain6,A,I,54,15,objects,outdoor_scenes,Stimuli/Experimental_stims/objects/jess-bailey-nOeVi8DsN8U-unsplash.jpg,Stimuli/Experimental_stims/outdoor_scenes/henry-be-NLF6hTe4PAg-unsplash.jpg,0,NaN,NaN,NaN,unchosen,2000
77131,0,166,3,3,0,no_gain2,gain2,J,L,59,24,objects,faces,Stimuli/Experimental_stims/objects/ronaldo-arthur-vidal-Cdz_lvnl37k-unsplash.jpg,Stimuli/Experimental_stims/faces/abstral-official-cyOKLSgkgCE-unsplash.jpg,0,NaN,NaN,NaN,unchosen,1000
77131,0,167,3,3,1,gain2,no_gain4,L,K,47,38,body_parts,body_parts,Stimuli/Experimental_stims/body_parts/tucker-good-36skLT5jZcc-unsplash.jpg,Stimuli/Experimental_stims/body_parts/engin-akyurt-x_3gyC42btc-unsplash.jpg,0,NaN,NaN,NaN,chosen,1500
77131,0,168,3,3,0,no_gain3,gain3,F,B,40,32,body_parts,faces,Stimuli/Experimental_stims/body_parts/klara-kulikova-TcUfF24fUMY-unsplash.jpg,Stimuli/Experimental_stims/faces/justin-chen-J7Cf1Gch49E-unsplash.jpg,0,NaN,NaN,NaN,unchosen,1500
77131,0,169,3,3,1,gain2,no_gain3,L,F,24,40,faces,body_parts,Stimuli/Experimental_stims/faces/abstral-official-cyOKLSgkgCE-unsplash.jpg,Stimuli/Experimental_stims/body_parts/klara-kulikova-TcUfF24fUMY-unsplash.jpg,0,NaN,NaN,NaN,unchosen,3000
77131,0,170,3,3,0,no_gain2,gain3,J,B,26,20,faces,outdoor_scenes,Stimuli/Experimental_stims/faces/art-hauntington-jzY0KRJopEI-unsplash.jpg,Stimuli/Experimental_stims/outdoor_scenes/samsommer-vddccTqwal8-unsplash.jpg,0,NaN,NaN,NaN,chosen,2000
77131,0,171,3,3,1,gain5,no_gain6,H,C,16,43,outdoor_scenes,body_parts,Stimuli/Experimental_stims/outdoor_scenes/jarrett-kow-1ZOyYPOBn7I-unsplash.jpg,Stimuli/Experimental_stims/body_parts/megan-menegay-UojxG_BJxnI-unsplash.jpg,0,NaN,NaN,NaN,unchosen,1500
77131,0,172,3,3,0,no_gain1,gain2,E,L,52,47,objects,body_parts,Stimuli/Experimental_stims/objects/fabian-blank-pElSkGRA2NU-unsplash.jpg,Stimuli/Experimental_stims/body_parts/tucker-good-36skLT5jZcc-unsplash.jpg,0,NaN,NaN,NaN,chosen,1000
77131,0,173,3,3,1,gain4,no_gain4,G,K,56,38,objects,body_parts,Stimuli/Experimental_stims/objects/jonathan-greenaway-Y4hGgeiFn3s-unsplash.jpg,Stimuli/Experimental_stims/body_parts/engin-akyurt-x_3gyC42btc-unsplash.jpg,0,NaN,NaN,NaN,chosen,3500
77131,0,174,3,3,1,gain4,no_gain1,G,E,56,52,objects,objects,Stimuli/Experimental_stims/objects/jonathan-greenaway-Y4hGgeiFn3s-unsplash.jpg,Stimuli/Experimental_stims/objects/fabian-blank-pElSkGRA2NU-unsplash.jpg,0,NaN,NaN,NaN,chosen,1000
77131,0,175,3,3,0,no_gain2,gain1,J,D,59,28,objects,faces,Stimuli/Experimental_stims/objects/ronaldo-arthur-vidal-Cdz_lvnl37k-unsplash.jpg,Stimuli/Experimental_stims/faces/erik-lucatero-d2MSDujJl2g-unsplash.jpg,0,NaN,NaN,NaN,unchosen,2000
77131,0,176,3,3,1,gain1,no_gain1,D,E,53,52,objects,objects,Stimuli/Experimental_stims/objects/insung-yoon-w2JtIQQXoRU-unsplash.jpg,Stimuli/Experimental_stims/objects/fabian-blank-pElSkGRA2NU-unsplash.jpg,0,NaN,NaN,NaN,chosen,1000
77131,0,177,3,3,1,gain1,no_gain2,D,J,53,26,objects,faces,Stimuli/Experimental_stims/objects/insung-yoon-w2JtIQQXoRU-unsplash.jpg,Stimuli/Experimental_stims/faces/art-hauntington-jzY0KRJopEI-unsplash.jpg,0,NaN,NaN,NaN,chosen,1000
77131,0,178,3,3,1,gain4,no_gain3,G,F,56,30,objects,faces,Stimuli/Experimental_stims/objects/jonathan-greenaway-Y4hGgeiFn3s-unsplash.jpg,Stimuli/Experimental_stims/faces/good-faces-xmSWVeGEnJw-unsplash.jpg,0,NaN,NaN,NaN,chosen,2000
77131,0,179,3,3,0,no_gain1,gain6,E,I,52,41,objects,body_parts,Stimuli/Experimental_stims/objects/fabian-blank-pElSkGRA2NU-unsplash.jpg,Stimuli/Experimental_stims/body_parts/lucaxx-freire-CacZwMexYdk-unsplash.jpg,0,NaN,NaN,NaN,chosen,3000
77131,0,180,3,3,0,no_gain3,gain4,F,G,40,18,body_parts,outdoor_scenes,Stimuli/Experimental_stims/body_parts/klara-kulikova-TcUfF24fUMY-unsplash.jpg,Stimuli/Experimental_stims/outdoor_scenes/meng-ji-8BH_M-53CyA-unsplash.jpg,0,NaN,NaN,NaN,unchosen,1000
77131,0,181,3,3,1,gain4,no_gain5,G,A,18,54,outdoor_scenes,objects,Stimuli/Experimental_stims/outdoor_scenes/meng-ji-8BH_M-53CyA-unsplash.jpg,Stimuli/Experimental_stims/objects/jess-bailey-nOeVi8DsN8U-unsplash.jpg,0,NaN,NaN,NaN,unchosen,1000
77131,0,182,3,3,1,gain6,no_gain6,I,C,41,22,body_parts,outdoor_scenes,Stimuli/Experimental_stims/body_parts/lucaxx-freire-CacZwMexYdk-unsplash.jpg,Stimuli/Experimental_stims/outdoor_scenes/stephen-leonardi-gyIRjKPXupE-unsplash.jpg,0,NaN,NaN,NaN,chosen,1000
77131,0,183,3,3,1,gain5,no_gain6,H,C,25,22,faces,outdoor_scenes,Stimuli/Experimental_stims/faces/aiony-haust-jmATI5Q_YgY-unsplash.jpg,Stimuli/Experimental_stims/outdoor_scenes/stephen-leonardi-gyIRjKPXupE-unsplash.jpg,0,NaN,NaN,NaN,chosen,3500
77131,0,184,3,3,1,gain6,no_gain5,I,A,41,13,body_parts,outdoor_scenes,Stimuli/Experimental_stims/body_parts/lucaxx-freire-CacZwMexYdk-unsplash.jpg,Stimuli/Experimental_stims/outdoor_scenes/ashim-d-silva-S2Q5mdOrrVc-unsplash.jpg,0,NaN,NaN,NaN,chosen,1500
77131,0,185,3,3,0,no_gain5,gain1,A,D,13,53,outdoor_scenes,objects,Stimuli/Experimental_stims/outdoor_scenes/ashim-d-silva-S2Q5mdOrrVc-unsplash.jpg,Stimuli/Experimental_stims/objects/insung-yoon-w2JtIQQXoRU-unsplash.jpg,0,NaN,NaN,NaN,chosen,1500
77131,0,186,3,3,1,gain6,no_gain1,I,E,15,45,outdoor_scenes,body_parts,Stimuli/Experimental_stims/outdoor_scenes/henry-be-NLF6hTe4PAg-unsplash.jpg,Stimuli/Experimental_stims/body_parts/sincerely-media-7TBFwUQA6Xk-unsplash.jpg,0,NaN,NaN,NaN,unchosen,1500
77131,0,187,3,3,1,gain4,no_gain2,G,J,56,26,objects,faces,Stimuli/Experimental_stims/objects/jonathan-greenaway-Y4hGgeiFn3s-unsplash.jpg,Stimuli/Experimental_stims/faces/art-hauntington-jzY0KRJopEI-unsplash.jpg,0,NaN,NaN,NaN,chosen,1000
77131,0,188,3,3,0,no_gain1,gain5,E,H,52,25,objects,faces,Stimuli/Experimental_stims/objects/fabian-blank-pElSkGRA2NU-unsplash.jpg,Stimuli/Experimental_stims/faces/aiony-haust-jmATI5Q_YgY-unsplash.jpg,0,NaN,NaN,NaN,chosen,3000
77131,0,189,3,3,0,no_gain3,gain6,F,I,30,41,faces,body_parts,Stimuli/Experimental_stims/faces/good-faces-xmSWVeGEnJw-unsplash.jpg,Stimuli/Experimental_stims/body_parts/lucaxx-freire-CacZwMexYdk-unsplash.jpg,0,NaN,NaN,NaN,chosen,3000
77131,0,190,3,3,1,gain1,no_gain6,D,C,53,22,objects,outdoor_scenes,Stimuli/Experimental_stims/objects/insung-yoon-w2JtIQQXoRU-unsplash.jpg,Stimuli/Experimental_stims/outdoor_scenes/stephen-leonardi-gyIRjKPXupE-unsplash.jpg,0,NaN,NaN,NaN,chosen,1000
77131,0,191,3,3,1,gain3,no_gain4,B,K,32,50,faces,objects,Stimuli/Experimental_stims/faces/justin-chen-J7Cf1Gch49E-unsplash.jpg,Stimuli/Experimental_stims/objects/andrew-petrov-TVJqDat4MAw-unsplash.jpg,0,NaN,NaN,NaN,unchosen,1000
77131,0,192,3,3,1,gain5,no_gain4,H,K,25,38,faces,body_parts,Stimuli/Experimental_stims/faces/aiony-haust-jmATI5Q_YgY-unsplash.jpg,Stimuli/Experimental_stims/body_parts/engin-akyurt-x_3gyC42btc-unsplash.jpg,0,NaN,NaN,NaN,chosen,2000
77131,0,193,3,3,1,gain1,no_gain5,D,A,28,54,faces,objects,Stimuli/Experimental_stims/faces/erik-lucatero-d2MSDujJl2g-unsplash.jpg,Stimuli/Experimental_stims/objects/jess-bailey-nOeVi8DsN8U-unsplash.jpg,0,NaN,NaN,NaN,unchosen,1500
77131,0,194,3,3,0,no_gain2,gain2,J,L,26,47,faces,body_parts,Stimuli/Experimental_stims/faces/art-hauntington-jzY0KRJopEI-unsplash.jpg,Stimuli/Experimental_stims/body_parts/tucker-good-36skLT5jZcc-unsplash.jpg,0,NaN,NaN,NaN,chosen,2000
77131,0,195,3,3,1,gain5,no_gain2,H,J,25,26,faces,faces,Stimuli/Experimental_stims/faces/aiony-haust-jmATI5Q_YgY-unsplash.jpg,Stimuli/Experimental_stims/faces/art-hauntington-jzY0KRJopEI-unsplash.jpg,0,NaN,NaN,NaN,chosen,1500
77131,0,196,3,3,1,gain4,no_gain6,G,C,18,43,outdoor_scenes,body_parts,Stimuli/Experimental_stims/outdoor_scenes/meng-ji-8BH_M-53CyA-unsplash.jpg,Stimuli/Experimental_stims/body_parts/megan-menegay-UojxG_BJxnI-unsplash.jpg,0,NaN,NaN,NaN,unchosen,1500
77131,0,197,3,3,1,gain1,no_gain4,D,K,28,50,faces,objects,Stimuli/Experimental_stims/faces/erik-lucatero-d2MSDujJl2g-unsplash.jpg,Stimuli/Experimental_stims/objects/andrew-petrov-TVJqDat4MAw-unsplash.jpg,0,NaN,NaN,NaN,unchosen,3500
77131,0,198,3,3,1,gain5,no_gain3,H,F,25,30,faces,faces,Stimuli/Experimental_stims/faces/aiony-haust-jmATI5Q_YgY-unsplash.jpg,Stimuli/Experimental_stims/faces/good-faces-xmSWVeGEnJw-unsplash.jpg,0,NaN,NaN,NaN,chosen,1500
77131,0,199,3,3,0,no_gain1,gain4,E,G,45,18,body_parts,outdoor_scenes,Stimuli/Experimental_stims/body_parts/sincerely-media-7TBFwUQA6Xk-unsplash.jpg,Stimuli/Experimental_stims/outdoor_scenes/meng-ji-8BH_M-53CyA-unsplash.jpg,0,NaN,NaN,NaN,unchosen,1000
77131,0,200,3,3,1,gain6,no_gain4,I,K,41,38,body_parts,body_parts,Stimuli/Experimental_stims/body_parts/lucaxx-freire-CacZwMexYdk-unsplash.jpg,Stimuli/Experimental_stims/body_parts/engin-akyurt-x_3gyC42btc-unsplash.jpg,0,NaN,NaN,NaN,chosen,2000
77131,0,201,3,3,0,no_gain5,gain3,A,B,13,20,outdoor_scenes,outdoor_scenes,Stimuli/Experimental_stims/outdoor_scenes/ashim-d-silva-S2Q5mdOrrVc-unsplash.jpg,Stimuli/Experimental_stims/outdoor_scenes/samsommer-vddccTqwal8-unsplash.jpg,0,NaN,NaN,NaN,chosen,1000
77131,0,202,3,3,0,no_gain3,gain1,F,D,30,53,faces,objects,Stimuli/Experimental_stims/faces/good-faces-xmSWVeGEnJw-unsplash.jpg,Stimuli/Experimental_stims/objects/insung-yoon-w2JtIQQXoRU-unsplash.jpg,0,NaN,NaN,NaN,chosen,1000
77131,0,203,3,3,0,no_gain3,gain6,F,I,40,15,body_parts,outdoor_scenes,Stimuli/Experimental_stims/body_parts/klara-kulikova-TcUfF24fUMY-unsplash.jpg,Stimuli/Experimental_stims/outdoor_scenes/henry-be-NLF6hTe4PAg-unsplash.jpg,0,NaN,NaN,NaN,unchosen,2000
77131,0,204,3,3,1,gain6,no_gain2,I,J,15,59,outdoor_scenes,objects,Stimuli/Experimental_stims/outdoor_scenes/henry-be-NLF6hTe4PAg-unsplash.jpg,Stimuli/Experimental_stims/objects/ronaldo-arthur-vidal-Cdz_lvnl37k-unsplash.jpg,0,NaN,NaN,NaN,unchosen,1000
77131,0,205,3,3,0,no_gain2,gain5,J,H,59,16,objects,outdoor_scenes,Stimuli/Experimental_stims/objects/ronaldo-arthur-vidal-Cdz_lvnl37k-unsplash.jpg,Stimuli/Experimental_stims/outdoor_scenes/jarrett-kow-1ZOyYPOBn7I-unsplash.jpg,0,NaN,NaN,NaN,unchosen,1000
77131,0,206,3,3,1,gain6,no_gain2,I,J,41,26,body_parts,faces,Stimuli/Experimental_stims/body_parts/lucaxx-freire-CacZwMexYdk-unsplash.jpg,Stimuli/Experimental_stims/faces/art-hauntington-jzY0KRJopEI-unsplash.jpg,0,NaN,NaN,NaN,chosen,1500
77131,0,207,3,3,0,no_gain5,gain2,A,L,13,47,outdoor_scenes,body_parts,Stimuli/Experimental_stims/outdoor_scenes/ashim-d-silva-S2Q5mdOrrVc-unsplash.jpg,Stimuli/Experimental_stims/body_parts/tucker-good-36skLT5jZcc-unsplash.jpg,0,NaN,NaN,NaN,chosen,1000
77131,0,208,3,3,1,gain2,no_gain5,L,A,24,54,faces,objects,Stimuli/Experimental_stims/faces/abstral-official-cyOKLSgkgCE-unsplash.jpg,Stimuli/Experimental_stims/objects/jess-bailey-nOeVi8DsN8U-unsplash.jpg,0,NaN,NaN,NaN,unchosen,1500
77131,0,209,3,3,1,gain1,no_gain1,D,E,28,45,faces,body_parts,Stimuli/Experimental_stims/faces/erik-lucatero-d2MSDujJl2g-unsplash.jpg,Stimuli/Experimental_stims/body_parts/sincerely-media-7TBFwUQA6Xk-unsplash.jpg,0,NaN,NaN,NaN,unchosen,1000
77131,0,210,3,3,0,no_gain5,gain5,A,H,54,16,objects,outdoor_scenes,Stimuli/Experimental_stims/objects/jess-bailey-nOeVi8DsN8U-unsplash.jpg,Stimuli/Experimental_stims/outdoor_scenes/jarrett-kow-1ZOyYPOBn7I-unsplash.jpg,0,NaN,NaN,NaN,unchosen,3500
77131,0,211,3,3,1,gain6,no_gain4,I,K,15,50,outdoor_scenes,objects,Stimuli/Experimental_stims/outdoor_scenes/henry-be-NLF6hTe4PAg-unsplash.jpg,Stimuli/Experimental_stims/objects/andrew-petrov-TVJqDat4MAw-unsplash.jpg,0,NaN,NaN,NaN,unchosen,1000
77131,0,212,3,3,0,no_gain3,gain1,F,D,40,28,body_parts,faces,Stimuli/Experimental_stims/body_parts/klara-kulikova-TcUfF24fUMY-unsplash.jpg,Stimuli/Experimental_stims/faces/erik-lucatero-d2MSDujJl2g-unsplash.jpg,0,NaN,NaN,NaN,unchosen,2000
77131,0,213,3,3,0,no_gain4,gain2,K,L,50,24,objects,faces,Stimuli/Experimental_stims/objects/andrew-petrov-TVJqDat4MAw-unsplash.jpg,Stimuli/Experimental_stims/faces/abstral-official-cyOKLSgkgCE-unsplash.jpg,0,NaN,NaN,NaN,unchosen,3000
77131,0,214,3,3,1,gain6,no_gain6,I,C,15,43,outdoor_scenes,body_parts,Stimuli/Experimental_stims/outdoor_scenes/henry-be-NLF6hTe4PAg-unsplash.jpg,Stimuli/Experimental_stims/body_parts/megan-menegay-UojxG_BJxnI-unsplash.jpg,0,NaN,NaN,NaN,unchosen,1500
77131,0,215,3,3,1,gain3,no_gain5,B,A,32,54,faces,objects,Stimuli/Experimental_stims/faces/justin-chen-J7Cf1Gch49E-unsplash.jpg,Stimuli/Experimental_stims/objects/jess-bailey-nOeVi8DsN8U-unsplash.jpg,0,NaN,NaN,NaN,unchosen,1000
77131,0,216,3,3,0,no_gain6,gain2,C,L,22,47,outdoor_scenes,body_parts,Stimuli/Experimental_stims/outdoor_scenes/stephen-leonardi-gyIRjKPXupE-unsplash.jpg,Stimuli/Experimental_stims/body_parts/tucker-good-36skLT5jZcc-unsplash.jpg,0,NaN,NaN,NaN,chosen,1000
77131,0,217,3,3,0,no_gain1,gain3,E,B,52,20,objects,outdoor_scenes,Stimuli/Experimental_stims/objects/fabian-blank-pElSkGRA2NU-unsplash.jpg,Stimuli/Experimental_stims/outdoor_scenes/samsommer-vddccTqwal8-unsplash.jpg,0,NaN,NaN,NaN,chosen,1000
77131,0,218,3,3,0,no_gain3,gain3,F,B,30,20,faces,outdoor_scenes,Stimuli/Experimental_stims/faces/good-faces-xmSWVeGEnJw-unsplash.jpg,Stimuli/Experimental_stims/outdoor_scenes/samsommer-vddccTqwal8-unsplash.jpg,0,NaN,NaN,NaN,chosen,1500
77131,0,219,3,3,1,gain2,no_gain3,L,F,47,30,body_parts,faces,Stimuli/Experimental_stims/body_parts/tucker-good-36skLT5jZcc-unsplash.jpg,Stimuli/Experimental_stims/faces/good-faces-xmSWVeGEnJw-unsplash.jpg,0,NaN,NaN,NaN,chosen,1500
77131,0,220,3,3,0,no_gain4,gain3,K,B,38,20,body_parts,outdoor_scenes,Stimuli/Experimental_stims/body_parts/engin-akyurt-x_3gyC42btc-unsplash.jpg,Stimuli/Experimental_stims/outdoor_scenes/samsommer-vddccTqwal8-unsplash.jpg,0,NaN,NaN,NaN,chosen,1000
77131,0,221,4,4,0,no_gain4,gain2,K,L,50,24,objects,faces,Stimuli/Experimental_stims/objects/andrew-petrov-TVJqDat4MAw-unsplash.jpg,Stimuli/Experimental_stims/faces/abstral-official-cyOKLSgkgCE-unsplash.jpg,0,NaN,NaN,NaN,unchosen,1000
77131,0,222,4,4,0,no_gain6,gain1,C,D,22,53,outdoor_scenes,objects,Stimuli/Experimental_stims/outdoor_scenes/stephen-leonardi-gyIRjKPXupE-unsplash.jpg,Stimuli/Experimental_stims/objects/insung-yoon-w2JtIQQXoRU-unsplash.jpg,0,NaN,NaN,NaN,chosen,3000
77131,0,223,4,4,0,no_gain2,gain1,J,D,26,53,faces,objects,Stimuli/Experimental_stims/faces/art-hauntington-jzY0KRJopEI-unsplash.jpg,Stimuli/Experimental_stims/objects/insung-yoon-w2JtIQQXoRU-unsplash.jpg,0,NaN,NaN,NaN,chosen,1000
77131,0,224,4,4,1,gain3,no_gain1,B,E,20,52,outdoor_scenes,objects,Stimuli/Experimental_stims/outdoor_scenes/samsommer-vddccTqwal8-unsplash.jpg,Stimuli/Experimental_stims/objects/fabian-blank-pElSkGRA2NU-unsplash.jpg,0,NaN,NaN,NaN,chosen,1000
77131,0,225,4,4,1,gain4,no_gain3,G,F,56,30,objects,faces,Stimuli/Experimental_stims/objects/jonathan-greenaway-Y4hGgeiFn3s-unsplash.jpg,Stimuli/Experimental_stims/faces/good-faces-xmSWVeGEnJw-unsplash.jpg,0,NaN,NaN,NaN,chosen,3000
77131,0,226,4,4,1,gain3,no_gain3,B,F,32,40,faces,body_parts,Stimuli/Experimental_stims/faces/justin-chen-J7Cf1Gch49E-unsplash.jpg,Stimuli/Experimental_stims/body_parts/klara-kulikova-TcUfF24fUMY-unsplash.jpg,0,NaN,NaN,NaN,unchosen,3500
77131,0,227,4,4,0,no_gain5,gain3,A,B,13,20,outdoor_scenes,outdoor_scenes,Stimuli/Experimental_stims/outdoor_scenes/ashim-d-silva-S2Q5mdOrrVc-unsplash.jpg,Stimuli/Experimental_stims/outdoor_scenes/samsommer-vddccTqwal8-unsplash.jpg,0,NaN,NaN,NaN,chosen,1500
77131,0,228,4,4,1,gain4,no_gain6,G,C,56,22,objects,outdoor_scenes,Stimuli/Experimental_stims/objects/jonathan-greenaway-Y4hGgeiFn3s-unsplash.jpg,Stimuli/Experimental_stims/outdoor_scenes/stephen-leonardi-gyIRjKPXupE-unsplash.jpg,0,NaN,NaN,NaN,chosen,2000
77131,0,229,4,4,1,gain2,no_gain3,L,F,47,30,body_parts,faces,Stimuli/Experimental_stims/body_parts/tucker-good-36skLT5jZcc-unsplash.jpg,Stimuli/Experimental_stims/faces/good-faces-xmSWVeGEnJw-unsplash.jpg,0,NaN,NaN,NaN,chosen,1000
77131,0,230,4,4,0,no_gain6,gain4,C,G,43,18,body_parts,outdoor_scenes,Stimuli/Experimental_stims/body_parts/megan-menegay-UojxG_BJxnI-unsplash.jpg,Stimuli/Experimental_stims/outdoor_scenes/meng-ji-8BH_M-53CyA-unsplash.jpg,0,NaN,NaN,NaN,unchosen,1000
77131,0,231,4,4,1,gain5,no_gain6,H,C,16,43,outdoor_scenes,body_parts,Stimuli/Experimental_stims/outdoor_scenes/jarrett-kow-1ZOyYPOBn7I-unsplash.jpg,Stimuli/Experimental_stims/body_parts/megan-menegay-UojxG_BJxnI-unsplash.jpg,0,NaN,NaN,NaN,unchosen,2000
77131,0,232,4,4,1,gain1,no_gain5,D,A,53,13,objects,outdoor_scenes,Stimuli/Experimental_stims/objects/insung-yoon-w2JtIQQXoRU-unsplash.jpg,Stimuli/Experimental_stims/outdoor_scenes/ashim-d-silva-S2Q5mdOrrVc-unsplash.jpg,0,NaN,NaN,NaN,chosen,1000
77131,0,233,4,4,1,gain5,no_gain3,H,F,16,40,outdoor_scenes,body_parts,Stimuli/Experimental_stims/outdoor_scenes/jarrett-kow-1ZOyYPOBn7I-unsplash.jpg,Stimuli/Experimental_stims/body_parts/klara-kulikova-TcUfF24fUMY-unsplash.jpg,0,NaN,NaN,NaN,unchosen,1000
77131,0,234,4,4,0,no_gain5,gain3,A,B,54,32,objects,faces,Stimuli/Experimental_stims/objects/jess-bailey-nOeVi8DsN8U-unsplash.jpg,Stimuli/Experimental_stims/faces/justin-chen-J7Cf1Gch49E-unsplash.jpg,0,NaN,NaN,NaN,unchosen,3000
77131,0,235,4,4,1,gain4,no_gain1,G,E,56,52,objects,objects,Stimuli/Experimental_stims/objects/jonathan-greenaway-Y4hGgeiFn3s-unsplash.jpg,Stimuli/Experimental_stims/objects/fabian-blank-pElSkGRA2NU-unsplash.jpg,0,NaN,NaN,NaN,chosen,3000
77131,0,236,4,4,1,gain1,no_gain3,D,F,53,30,objects,faces,Stimuli/Experimental_stims/objects/insung-yoon-w2JtIQQXoRU-unsplash.jpg,Stimuli/Experimental_stims/faces/good-faces-xmSWVeGEnJw-unsplash.jpg,0,NaN,NaN,NaN,chosen,1000
77131,0,237,4,4,1,gain2,no_gain2,L,J,47,26,body_parts,faces,Stimuli/Experimental_stims/body_parts/tucker-good-36skLT5jZcc-unsplash.jpg,Stimuli/Experimental_stims/faces/art-hauntington-jzY0KRJopEI-unsplash.jpg,0,NaN,NaN,NaN,chosen,1500
77131,0,238,4,4,0,no_gain5,gain6,A,I,13,41,outdoor_scenes,body_parts,Stimuli/Experimental_stims/outdoor_scenes/ashim-d-silva-S2Q5mdOrrVc-unsplash.jpg,Stimuli/Experimental_stims/body_parts/lucaxx-freire-CacZwMexYdk-unsplash.jpg,0,NaN,NaN,NaN,chosen,1000
77131,0,239,4,4,1,gain6,no_gain6,I,C,41,22,body_parts,outdoor_scenes,Stimuli/Experimental_stims/body_parts/lucaxx-freire-CacZwMexYdk-unsplash.jpg,Stimuli/Experimental_stims/outdoor_scenes/stephen-leonardi-gyIRjKPXupE-unsplash.jpg,0,NaN,NaN,NaN,chosen,1500
77131,0,240,4,4,0,no_gain1,gain5,E,H,52,25,objects,faces,Stimuli/Experimental_stims/objects/fabian-blank-pElSkGRA2NU-unsplash.jpg,Stimuli/Experimental_stims/faces/aiony-haust-jmATI5Q_YgY-unsplash.jpg,0,NaN,NaN,NaN,chosen,1000
77131,0,241,4,4,0,no_gain4,gain1,K,D,50,28,objects,faces,Stimuli/Experimental_stims/objects/andrew-petrov-TVJqDat4MAw-unsplash.jpg,Stimuli/Experimental_stims/faces/erik-lucatero-d2MSDujJl2g-unsplash.jpg,0,NaN,NaN,NaN,unchosen,2000
77131,0,242,4,4,1,gain6,no_gain3,I,F,15,40,outdoor_scenes,body_parts,Stimuli/Experimental_stims/outdoor_scenes/henry-be-NLF6hTe4PAg-unsplash.jpg,Stimuli/Experimental_stims/body_parts/klara-kulikova-TcUfF24fUMY-unsplash.jpg,0,NaN,NaN,NaN,unchosen,1000
77131,0,243,4,4,1,gain3,no_gain3,B,F,20,30,outdoor_scenes,faces,Stimuli/Experimental_stims/outdoor_scenes/samsommer-vddccTqwal8-unsplash.jpg,Stimuli/Experimental_stims/faces/good-faces-xmSWVeGEnJw-unsplash.jpg,0,NaN,NaN,NaN,chosen,1500
77131,0,244,4,4,0,no_gain3,gain2,F,L,40,24,body_parts,faces,Stimuli/Experimental_stims/body_parts/klara-kulikova-TcUfF24fUMY-unsplash.jpg,Stimuli/Experimental_stims/faces/abstral-official-cyOKLSgkgCE-unsplash.jpg,0,NaN,NaN,NaN,unchosen,2000
77131,0,245,4,4,0,no_gain4,gain4,K,G,38,56,body_parts,objects,Stimuli/Experimental_stims/body_parts/engin-akyurt-x_3gyC42btc-unsplash.jpg,Stimuli/Experimental_stims/objects/jonathan-greenaway-Y4hGgeiFn3s-unsplash.jpg,0,NaN,NaN,NaN,chosen,1000
77131,0,246,4,4,1,gain2,no_gain6,L,C,24,43,faces,body_parts,Stimuli/Experimental_stims/faces/abstral-official-cyOKLSgkgCE-unsplash.jpg,Stimuli/Experimental_stims/body_parts/megan-menegay-UojxG_BJxnI-unsplash.jpg,0,NaN,NaN,NaN,unchosen,3000
77131,0,247,4,4,0,no_gain5,gain2,A,L,13,47,outdoor_scenes,body_parts,Stimuli/Experimental_stims/outdoor_scenes/ashim-d-silva-S2Q5mdOrrVc-unsplash.jpg,Stimuli/Experimental_stims/body_parts/tucker-good-36skLT5jZcc-unsplash.jpg,0,NaN,NaN,NaN,chosen,1500
77131,0,248,4,4,1,gain2,no_gain5,L,A,24,54,faces,objects,Stimuli/Experimental_stims/faces/abstral-official-cyOKLSgkgCE-unsplash.jpg,Stimuli/Experimental_stims/objects/jess-bailey-nOeVi8DsN8U-unsplash.jpg,0,NaN,NaN,NaN,unchosen,1000
77131,0,249,4,4,1,gain4,no_gain2,G,J,18,59,outdoor_scenes,objects,Stimuli/Experimental_stims/outdoor_scenes/meng-ji-8BH_M-53CyA-unsplash.jpg,Stimuli/Experimental_stims/objects/ronaldo-arthur-vidal-Cdz_lvnl37k-unsplash.jpg,0,NaN,NaN,NaN,unchosen,1500
77131,0,250,4,4,1,gain2,no_gain2,L,J,24,59,faces,objects,Stimuli/Experimental_stims/faces/abstral-official-cyOKLSgkgCE-unsplash.jpg,Stimuli/Experimental_stims/objects/ronaldo-arthur-vidal-Cdz_lvnl37k-unsplash.jpg,0,NaN,NaN,NaN,unchosen,1500
77131,0,251,4,4,0,no_gain4,gain4,K,G,50,18,objects,outdoor_scenes,Stimuli/Experimental_stims/objects/andrew-petrov-TVJqDat4MAw-unsplash.jpg,Stimuli/Experimental_stims/outdoor_scenes/meng-ji-8BH_M-53CyA-unsplash.jpg,0,NaN,NaN,NaN,unchosen,3500
77131,0,252,4,4,0,no_gain1,gain5,E,H,45,16,body_parts,outdoor_scenes,Stimuli/Experimental_stims/body_parts/sincerely-media-7TBFwUQA6Xk-unsplash.jpg,Stimuli/Experimental_stims/outdoor_scenes/jarrett-kow-1ZOyYPOBn7I-unsplash.jpg,0,NaN,NaN,NaN,unchosen,1000
77131,0,253,4,4,1,gain6,no_gain3,I,F,41,30,body_parts,faces,Stimuli/Experimental_stims/body_parts/lucaxx-freire-CacZwMexYdk-unsplash.jpg,Stimuli/Experimental_stims/faces/good-faces-xmSWVeGEnJw-unsplash.jpg,0,NaN,NaN,NaN,chosen,2000
77131,0,254,4,4,1,gain4,no_gain3,G,F,18,40,outdoor_scenes,body_parts,Stimuli/Experimental_stims/outdoor_scenes/meng-ji-8BH_M-53CyA-unsplash.jpg,Stimuli/Experimental_stims/body_parts/klara-kulikova-TcUfF24fUMY-unsplash.jpg,0,NaN,NaN,NaN,unchosen,1500
77131,0,255,4,4,0,no_gain4,gain3,K,B,38,20,body_parts,outdoor_scenes,Stimuli/Experimental_stims/body_parts/engin-akyurt-x_3gyC42btc-unsplash.jpg,Stimuli/Experimental_stims/outdoor_scenes/samsommer-vddccTqwal8-unsplash.jpg,0,NaN,NaN,NaN,chosen,3000
77131,0,256,4,4,0,no_gain5,gain6,A,I,54,15,objects,outdoor_scenes,Stimuli/Experimental_stims/objects/jess-bailey-nOeVi8DsN8U-unsplash.jpg,Stimuli/Experimental_stims/outdoor_scenes/henry-be-NLF6hTe4PAg-unsplash.jpg,0,NaN,NaN,NaN,unchosen,1500
77131,0,257,4,4,1,gain3,no_gain1,B,E,32,45,faces,body_parts,Stimuli/Experimental_stims/faces/justin-chen-J7Cf1Gch49E-unsplash.jpg,Stimuli/Experimental_stims/body_parts/sincerely-media-7TBFwUQA6Xk-unsplash.jpg,0,NaN,NaN,NaN,unchosen,2000
77131,0,258,4,4,0,no_gain6,gain5,C,H,22,25,outdoor_scenes,faces,Stimuli/Experimental_stims/outdoor_scenes/stephen-leonardi-gyIRjKPXupE-unsplash.jpg,Stimuli/Experimental_stims/faces/aiony-haust-jmATI5Q_YgY-unsplash.jpg,0,NaN,NaN,NaN,chosen,2000
77131,0,259,4,4,0,no_gain2,gain3,J,B,26,20,faces,outdoor_scenes,Stimuli/Experimental_stims/faces/art-hauntington-jzY0KRJopEI-unsplash.jpg,Stimuli/Experimental_stims/outdoor_scenes/samsommer-vddccTqwal8-unsplash.jpg,0,NaN,NaN,NaN,chosen,1000
77131,0,260,4,4,1,gain6,no_gain6,I,C,15,43,outdoor_scenes,body_parts,Stimuli/Experimental_stims/outdoor_scenes/henry-be-NLF6hTe4PAg-unsplash.jpg,Stimuli/Experimental_stims/body_parts/megan-menegay-UojxG_BJxnI-unsplash.jpg,0,NaN,NaN,NaN,unchosen,3000
77131,0,261,4,4,0,no_gain4,gain5,K,H,50,16,objects,outdoor_scenes,Stimuli/Experimental_stims/objects/andrew-petrov-TVJqDat4MAw-unsplash.jpg,Stimuli/Experimental_stims/outdoor_scenes/jarrett-kow-1ZOyYPOBn7I-unsplash.jpg,0,NaN,NaN,NaN,unchosen,1500
77131,0,262,4,4,0,no_gain1,gain6,E,I,45,15,body_parts,outdoor_scenes,Stimuli/Experimental_stims/body_parts/sincerely-media-7TBFwUQA6Xk-unsplash.jpg,Stimuli/Experimental_stims/outdoor_scenes/henry-be-NLF6hTe4PAg-unsplash.jpg,0,NaN,NaN,NaN,unchosen,1000
77131,0,263,4,4,0,no_gain3,gain1,F,D,40,28,body_parts,faces,Stimuli/Experimental_stims/body_parts/klara-kulikova-TcUfF24fUMY-unsplash.jpg,Stimuli/Experimental_stims/faces/erik-lucatero-d2MSDujJl2g-unsplash.jpg,0,NaN,NaN,NaN,unchosen,1500
77131,0,264,4,4,1,gain5,no_gain5,H,A,25,13,faces,outdoor_scenes,Stimuli/Experimental_stims/faces/aiony-haust-jmATI5Q_YgY-unsplash.jpg,Stimuli/Experimental_stims/outdoor_scenes/ashim-d-silva-S2Q5mdOrrVc-unsplash.jpg,0,NaN,NaN,NaN,chosen,1500
77131,0,265,4,4,0,no_gain2,gain5,J,H,26,25,faces,faces,Stimuli/Experimental_stims/faces/art-hauntington-jzY0KRJopEI-unsplash.jpg,Stimuli/Experimental_stims/faces/aiony-haust-jmATI5Q_YgY-unsplash.jpg,0,NaN,NaN,NaN,chosen,1000
77131,0,266,4,4,0,no_gain1,gain4,E,G,45,18,body_parts,outdoor_scenes,Stimuli/Experimental_stims/body_parts/sincerely-media-7TBFwUQA6Xk-unsplash.jpg,Stimuli/Experimental_stims/outdoor_scenes/meng-ji-8BH_M-53CyA-unsplash.jpg,0,NaN,NaN,NaN,unchosen,1500
77131,0,267,4,4,1,gain1,no_gain4,D,K,53,38,objects,body_parts,Stimuli/Experimental_stims/objects/insung-yoon-w2JtIQQXoRU-unsplash.jpg,Stimuli/Experimental_stims/body_parts/engin-akyurt-x_3gyC42btc-unsplash.jpg,0,NaN,NaN,NaN,chosen,1500
77131,0,268,4,4,1,gain6,no_gain2,I,J,41,26,body_parts,faces,Stimuli/Experimental_stims/body_parts/lucaxx-freire-CacZwMexYdk-unsplash.jpg,Stimuli/Experimental_stims/faces/art-hauntington-jzY0KRJopEI-unsplash.jpg,0,NaN,NaN,NaN,chosen,1000
77131,0,269,4,4,1,gain1,no_gain5,D,A,28,54,faces,objects,Stimuli/Experimental_stims/faces/erik-lucatero-d2MSDujJl2g-unsplash.jpg,Stimuli/Experimental_stims/objects/jess-bailey-nOeVi8DsN8U-unsplash.jpg,0,NaN,NaN,NaN,unchosen,1000
77131,0,270,4,4,1,gain4,no_gain2,G,J,56,26,objects,faces,Stimuli/Experimental_stims/objects/jonathan-greenaway-Y4hGgeiFn3s-unsplash.jpg,Stimuli/Experimental_stims/faces/art-hauntington-jzY0KRJopEI-unsplash.jpg,0,NaN,NaN,NaN,chosen,2000
77131,0,271,4,4,0,no_gain1,gain2,E,L,45,24,body_parts,faces,Stimuli/Experimental_stims/body_parts/sincerely-media-7TBFwUQA6Xk-unsplash.jpg,Stimuli/Experimental_stims/faces/abstral-official-cyOKLSgkgCE-unsplash.jpg,0,NaN,NaN,NaN,unchosen,1000
77131,0,272,4,4,0,no_gain1,gain1,E,D,45,28,body_parts,faces,Stimuli/Experimental_stims/body_parts/sincerely-media-7TBFwUQA6Xk-unsplash.jpg,Stimuli/Experimental_stims/faces/erik-lucatero-d2MSDujJl2g-unsplash.jpg,0,NaN,NaN,NaN,unchosen,1500
77131,0,273,4,4,1,gain2,no_gain6,L,C,47,22,body_parts,outdoor_scenes,Stimuli/Experimental_stims/body_parts/tucker-good-36skLT5jZcc-unsplash.jpg,Stimuli/Experimental_stims/outdoor_scenes/stephen-leonardi-gyIRjKPXupE-unsplash.jpg,0,NaN,NaN,NaN,chosen,1500
77131,0,274,4,4,1,gain4,no_gain5,G,A,18,54,outdoor_scenes,objects,Stimuli/Experimental_stims/outdoor_scenes/meng-ji-8BH_M-53CyA-unsplash.jpg,Stimuli/Experimental_stims/objects/jess-bailey-nOeVi8DsN8U-unsplash.jpg,0,NaN,NaN,NaN,unchosen,1000
77131,0,275,4,4,1,gain1,no_gain6,D,C,28,43,faces,body_parts,Stimuli/Experimental_stims/faces/erik-lucatero-d2MSDujJl2g-unsplash.jpg,Stimuli/Experimental_stims/body_parts/megan-menegay-UojxG_BJxnI-unsplash.jpg,0,NaN,NaN,NaN,unchosen,3000
77131,0,276,4,4,1,gain5,no_gain5,H,A,16,54,outdoor_scenes,objects,Stimuli/Experimental_stims/outdoor_scenes/jarrett-kow-1ZOyYPOBn7I-unsplash.jpg,Stimuli/Experimental_stims/objects/jess-bailey-nOeVi8DsN8U-unsplash.jpg,0,NaN,NaN,NaN,unchosen,1500
77131,0,277,4,4,0,no_gain2,gain6,J,I,59,15,objects,outdoor_scenes,Stimuli/Experimental_stims/objects/ronaldo-arthur-vidal-Cdz_lvnl37k-unsplash.jpg,Stimuli/Experimental_stims/outdoor_scenes/henry-be-NLF6hTe4PAg-unsplash.jpg,0,NaN,NaN,NaN,unchosen,2000
77131,0,278,4,4,1,gain1,no_gain2,D,J,28,59,faces,objects,Stimuli/Experimental_stims/faces/erik-lucatero-d2MSDujJl2g-unsplash.jpg,Stimuli/Experimental_stims/objects/ronaldo-arthur-vidal-Cdz_lvnl37k-unsplash.jpg,0,NaN,NaN,NaN,unchosen,2000
77131,0,279,4,4,0,no_gain4,gain2,K,L,38,47,body_parts,body_parts,Stimuli/Experimental_stims/body_parts/engin-akyurt-x_3gyC42btc-unsplash.jpg,Stimuli/Experimental_stims/body_parts/tucker-good-36skLT5jZcc-unsplash.jpg,0,NaN,NaN,NaN,chosen,2000
77131,0,280,4,4,0,no_gain5,gain4,A,G,13,56,outdoor_scenes,objects,Stimuli/Experimental_stims/outdoor_scenes/ashim-d-silva-S2Q5mdOrrVc-unsplash.jpg,Stimuli/Experimental_stims/objects/jonathan-greenaway-Y4hGgeiFn3s-unsplash.jpg,0,NaN,NaN,NaN,chosen,3500
77131,0,281,4,4,0,no_gain6,gain3,C,B,43,32,body_parts,faces,Stimuli/Experimental_stims/body_parts/megan-menegay-UojxG_BJxnI-unsplash.jpg,Stimuli/Experimental_stims/faces/justin-chen-J7Cf1Gch49E-unsplash.jpg,0,NaN,NaN,NaN,unchosen,1000
77131,0,282,4,4,0,no_gain1,gain2,E,L,52,47,objects,body_parts,Stimuli/Experimental_stims/objects/fabian-blank-pElSkGRA2NU-unsplash.jpg,Stimuli/Experimental_stims/body_parts/tucker-good-36skLT5jZcc-unsplash.jpg,0,NaN,NaN,NaN,chosen,1000
77131,0,283,4,4,0,no_gain1,gain6,E,I,52,41,objects,body_parts,Stimuli/Experimental_stims/objects/fabian-blank-pElSkGRA2NU-unsplash.jpg,Stimuli/Experimental_stims/body_parts/lucaxx-freire-CacZwMexYdk-unsplash.jpg,0,NaN,NaN,NaN,chosen,1500
77131,0,284,4,4,0,no_gain1,gain1,E,D,52,53,objects,objects,Stimuli/Experimental_stims/objects/fabian-blank-pElSkGRA2NU-unsplash.jpg,Stimuli/Experimental_stims/objects/insung-yoon-w2JtIQQXoRU-unsplash.jpg,0,NaN,NaN,NaN,chosen,1000
77131,0,285,4,4,1,gain6,no_gain4,I,K,15,50,outdoor_scenes,objects,Stimuli/Experimental_stims/outdoor_scenes/henry-be-NLF6hTe4PAg-unsplash.jpg,Stimuli/Experimental_stims/objects/andrew-petrov-TVJqDat4MAw-unsplash.jpg,0,NaN,NaN,NaN,unchosen,1000
77131,0,286,4,4,0,no_gain2,gain3,J,B,59,32,objects,faces,Stimuli/Experimental_stims/objects/ronaldo-arthur-vidal-Cdz_lvnl37k-unsplash.jpg,Stimuli/Experimental_stims/faces/justin-chen-J7Cf1Gch49E-unsplash.jpg,0,NaN,NaN,NaN,unchosen,1500
77131,0,287,4,4,0,no_gain2,gain5,J,H,59,16,objects,outdoor_scenes,Stimuli/Experimental_stims/objects/ronaldo-arthur-vidal-Cdz_lvnl37k-unsplash.jpg,Stimuli/Experimental_stims/outdoor_scenes/jarrett-kow-1ZOyYPOBn7I-unsplash.jpg,0,NaN,NaN,NaN,unchosen,1000
77131,0,288,4,4,1,gain5,no_gain3,H,F,25,30,faces,faces,Stimuli/Experimental_stims/faces/aiony-haust-jmATI5Q_YgY-unsplash.jpg,Stimuli/Experimental_stims/faces/good-faces-xmSWVeGEnJw-unsplash.jpg,0,NaN,NaN,NaN,chosen,3500
77131,0,289,4,4,1,gain5,no_gain4,H,K,25,38,faces,body_parts,Stimuli/Experimental_stims/faces/aiony-haust-jmATI5Q_YgY-unsplash.jpg,Stimuli/Experimental_stims/body_parts/engin-akyurt-x_3gyC42btc-unsplash.jpg,0,NaN,NaN,NaN,chosen,2000
77131,0,290,4,4,0,no_gain4,gain6,K,I,38,41,body_parts,body_parts,Stimuli/Experimental_stims/body_parts/engin-akyurt-x_3gyC42btc-unsplash.jpg,Stimuli/Experimental_stims/body_parts/lucaxx-freire-CacZwMexYdk-unsplash.jpg,0,NaN,NaN,NaN,chosen,1500
77131,0,291,4,4,0,no_gain6,gain3,C,B,22,20,outdoor_scenes,outdoor_scenes,Stimuli/Experimental_stims/outdoor_scenes/stephen-leonardi-gyIRjKPXupE-unsplash.jpg,Stimuli/Experimental_stims/outdoor_scenes/samsommer-vddccTqwal8-unsplash.jpg,0,NaN,NaN,NaN,chosen,1000
77131,0,292,4,4,1,gain3,no_gain4,B,K,32,50,faces,objects,Stimuli/Experimental_stims/faces/justin-chen-J7Cf1Gch49E-unsplash.jpg,Stimuli/Experimental_stims/objects/andrew-petrov-TVJqDat4MAw-unsplash.jpg,0,NaN,NaN,NaN,unchosen,1000