PID,practice,trial,block,run,gain_left,left_item_id,right_item_id,left_pair_id,right_pair_id,left_stimulus,right_stimulus,left_category,right_category,left_path,right_path,no_response,left_chosen,rt,higher_outcome_chosen,choice_type,iti
57383,1,1,0,0,NaN,NaN,NaN,NA,NA,NA,NA,NA,NA,Stimuli/Practice_stims/Final_decisions/debby-hudson-FmCSSSGge-0-unsplash.jpg,Stimuli/Practice_stims/Final_decisions/yassine-khalfalli-adsQ9d_Cx0c-unsplash.jpg,0,NaN,NaN,NaN,NaN,3000
57383,1,2,0,0,NaN,NaN,NaN,NA,NA,NA,NA,NA,NA,Stimuli/Practice_stims/Final_decisions/florian-wehde-iVW7mZPwd4g-unsplash.jpg,Stimuli/Practice_stims/Final_decisions/patrick-perkins-3wylDrjxH-E-unsplash.jpg,0,NaN,NaN,NaN,NaN,1500
57383,1,3,0,0,NaN,NaN,NaN,NA,NA,NA,NA,NA,NA,Stimuli/Practice_stims/Final_decisions/debby-hudson-FmCSSSGge-0-unsplash.jpg,Stimuli/Practice_stims/Final_decisions/florian-wehde-iVW7mZPwd4g-unsplash.jpg,0,NaN,NaN,NaN,NaN,2000
57383,1,4,0,0,NaN,NaN,NaN,NA,NA,NA,NA,NA,NA,Stimuli/Practice_stims/Final_decisions/yassine-khalfalli-adsQ9d_Cx0c-unsplash.jpg,Stimuli/Practice_stims/Final_decisions/debby-hudson-FmCSSSGge-0-unsplash.jpg,0,NaN,NaN,NaN,NaN,1000
57383,0,5,1,1,1,gain1,no_gain3,L,F,30,45,faces,body_parts,Stimuli/Experimental_stims/faces/good-faces-xmSWVeGEnJw-unsplash.jpg,Stimuli/Experimental_stims/body_parts/sincerely-media-7TBFwUQA6Xk-unsplash.jpg,0,NaN,NaN,NaN,unchosen,1500,50,50
57383,0,6,1,1,1,gain3,no_gain2,D,E,56,53,objects,objects,Stimuli/Experimental_stims/objects/jonathan-greenaway-Y4hGgeiFn3s-unsplash.jpg,Stimuli/Experimental_stims/objects/insung-yoon-w2JtIQQXoRU-unsplash.jpg,0,NaN,NaN,NaN,chosen,1500,50,50
57383,0,7,1,1,0,no_gain4,gain5,A,I,16,41,outdoor_scenes,body_parts,Stimuli/Experimental_stims/outdoor_scenes/jarrett-kow-1ZOyYPOBn7I-unsplash.jpg,Stimuli/Experimental_stims/body_parts/lucaxx-freire-CacZwMexYdk-unsplash.jpg,0,NaN,NaN,NaN,chosen,1000,50,50
57383,0,8,1,1,1,gain6,no_gain6,G,K,50,36,objects,body_parts,Stimuli/Experimental_stims/objects/andrew-petrov-TVJqDat4MAw-unsplash.jpg,Stimuli/Experimental_stims/body_parts/callum-skelton-3KLMq7y46nA-unsplash.jpg,0,NaN,NaN,NaN,chosen,1000,50,50
57383,0,9,1,1,0,no_gain1,gain6,J,G,25,50,faces,objects,Stimuli/Experimental_stims/faces/aiony-haust-jmATI5Q_YgY-unsplash.jpg,Stimuli/Experimental_stims/objects/andrew-petrov-TVJqDat4MAw-unsplash.jpg,0,NaN,NaN,NaN,chosen,1000,50,50
57383,0,10,1,1,1,gain3,no_gain6,D,K,56,36,objects,body_parts,Stimuli/Experimental_stims/objects/jonathan-greenaway-Y4hGgeiFn3s-unsplash.jpg,Stimuli/Experimental_stims/body_parts/callum-skelton-3KLMq7y46nA-unsplash.jpg,0,NaN,NaN,NaN,chosen,1000,50,50
57383,0,11,1,1,1,gain3,no_gain5,D,C,29,40,faces,body_parts,Stimuli/Experimental_stims/faces/freddy-kearney-o-ioeoATbIM-unsplash.jpg,Stimuli/Experimental_stims/body_parts/klara-kulikova-TcUfF24fUMY-unsplash.jpg,0,NaN,NaN,NaN,unchosen,1000,50,50
57383,0,12,1,1,0,no_gain3,gain6,F,G,45,22,body_parts,outdoor_scenes,Stimuli/Experimental_stims/body_parts/sincerely-media-7TBFwUQA6Xk-unsplash.jpg,Stimuli/Experimental_stims/outdoor_scenes/stephen-leonardi-gyIRjKPXupE-unsplash.jpg,0,NaN,NaN,NaN,unchosen,1000,50,50
57383,0,13,1,1,1,gain2,no_gain5,H,C,23,40,outdoor_scenes,body_parts,Stimuli/Experimental_stims/outdoor_scenes/yuriy-bogdanov-W51VK3Obcj0-unsplash.jpg,Stimuli/Experimental_stims/body_parts/klara-kulikova-TcUfF24fUMY-unsplash.jpg,0,NaN,NaN,NaN,unchosen,1000,50,50
57383,0,14,1,1,1,gain4,no_gain4,B,A,33,48,faces,objects,Stimuli/Experimental_stims/faces/leilani-angel-K84vnnzxmTQ-unsplash.jpg,Stimuli/Experimental_stims/objects/alexander-andrews-JYGnB9gTCls-unsplash.jpg,0,NaN,NaN,NaN,unchosen,1000,50,50
57383,0,15,1,1,1,gain3,no_gain1,D,J,56,25,objects,faces,Stimuli/Experimental_stims/objects/jonathan-greenaway-Y4hGgeiFn3s-unsplash.jpg,Stimuli/Experimental_stims/faces/aiony-haust-jmATI5Q_YgY-unsplash.jpg,0,NaN,NaN,NaN,chosen,1000,50,50
57383,0,16,1,1,1,gain6,no_gain6,G,K,22,54,outdoor_scenes,objects,Stimuli/Experimental_stims/outdoor_scenes/stephen-leonardi-gyIRjKPXupE-unsplash.jpg,Stimuli/Experimental_stims/objects/jess-bailey-nOeVi8DsN8U-unsplash.jpg,0,NaN,NaN,NaN,unchosen,1000,50,50
57383,0,17,1,1,1,gain2,no_gain3,H,F,23,45,outdoor_scenes,body_parts,Stimuli/Experimental_stims/outdoor_scenes/yuriy-bogdanov-W51VK3Obcj0-unsplash.jpg,Stimuli/Experimental_stims/body_parts/sincerely-media-7TBFwUQA6Xk-unsplash.jpg,0,NaN,NaN,NaN,unchosen,1500,50,50
57383,0,18,1,1,1,gain4,no_gain6,B,K,33,54,faces,objects,Stimuli/Experimental_stims/faces/leilani-angel-K84vnnzxmTQ-unsplash.jpg,Stimuli/Experimental_stims/objects/jess-bailey-nOeVi8DsN8U-unsplash.jpg,0,NaN,NaN,NaN,unchosen,2000,50,50
57383,0,19,1,1,1,gain6,no_gain4,G,A,22,48,outdoor_scenes,objects,Stimuli/Experimental_stims/outdoor_scenes/stephen-leonardi-gyIRjKPXupE-unsplash.jpg,Stimuli/Experimental_stims/objects/alexander-andrews-JYGnB9gTCls-unsplash.jpg,0,NaN,NaN,NaN,unchosen,3000,50,50
57383,0,20,1,1,0,no_gain4,gain2,A,H,48,23,objects,outdoor_scenes,Stimuli/Experimental_stims/objects/alexander-andrews-JYGnB9gTCls-unsplash.jpg,Stimuli/Experimental_stims/outdoor_scenes/yuriy-bogdanov-W51VK3Obcj0-unsplash.jpg,0,NaN,NaN,NaN,unchosen,2000,50,50
57383,0,21,1,1,0,no_gain5,gain4,C,B,12,14,outdoor_scenes,outdoor_scenes,Stimuli/Experimental_stims/outdoor_scenes/aleksandra-boguslawska-MS7KD9Ti7FQ-unsplash.jpg,Stimuli/Experimental_stims/outdoor_scenes/bruno-van-der-kraan-qez8mNJ3ilU-unsplash.jpg,0,NaN,NaN,NaN,chosen,1500,50,50
57383,0,22,1,1,0,no_gain2,gain1,E,L,39,30,body_parts,faces,Stimuli/Experimental_stims/body_parts/jonathan-borba-hTwH8QFkPMs-unsplash.jpg,Stimuli/Experimental_stims/faces/good-faces-xmSWVeGEnJw-unsplash.jpg,0,NaN,NaN,NaN,unchosen,1000,50,50
57383,0,23,1,1,1,gain3,no_gain4,D,A,56,16,objects,outdoor_scenes,Stimuli/Experimental_stims/objects/jonathan-greenaway-Y4hGgeiFn3s-unsplash.jpg,Stimuli/Experimental_stims/outdoor_scenes/jarrett-kow-1ZOyYPOBn7I-unsplash.jpg,0,NaN,NaN,NaN,chosen,3500,50,50
57383,0,24,1,1,0,no_gain3,gain6,F,G,35,50,faces,objects,Stimuli/Experimental_stims/faces/rikonavt-HQjfrvdTfak-unsplash.jpg,Stimuli/Experimental_stims/objects/andrew-petrov-TVJqDat4MAw-unsplash.jpg,0,NaN,NaN,NaN,chosen,3000,50,50
57383,0,25,1,1,0,no_gain4,gain1,A,L,16,42,outdoor_scenes,body_parts,Stimuli/Experimental_stims/outdoor_scenes/jarrett-kow-1ZOyYPOBn7I-unsplash.jpg,Stimuli/Experimental_stims/body_parts/lucrezia-carnelos-kn6QrWtnAtY-unsplash.jpg,0,NaN,NaN,NaN,chosen,1500,50,50
57383,0,26,1,1,1,gain1,no_gain3,L,F,42,35,body_parts,faces,Stimuli/Experimental_stims/body_parts/lucrezia-carnelos-kn6QrWtnAtY-unsplash.jpg,Stimuli/Experimental_stims/faces/rikonavt-HQjfrvdTfak-unsplash.jpg,0,NaN,NaN,NaN,chosen,1000,50,50
57383,0,27,1,1,0,no_gain1,gain5,J,I,25,41,faces,body_parts,Stimuli/Experimental_stims/faces/aiony-haust-jmATI5Q_YgY-unsplash.jpg,Stimuli/Experimental_stims/body_parts/lucaxx-freire-CacZwMexYdk-unsplash.jpg,0,NaN,NaN,NaN,chosen,1500,50,50
57383,0,28,1,1,0,no_gain4,gain1,A,L,48,30,objects,faces,Stimuli/Experimental_stims/objects/alexander-andrews-JYGnB9gTCls-unsplash.jpg,Stimuli/Experimental_stims/faces/good-faces-xmSWVeGEnJw-unsplash.jpg,0,NaN,NaN,NaN,unchosen,1500,50,50
57383,0,29,1,1,0,no_gain4,gain5,A,I,48,13,objects,outdoor_scenes,Stimuli/Experimental_stims/objects/alexander-andrews-JYGnB9gTCls-unsplash.jpg,Stimuli/Experimental_stims/outdoor_scenes/ashim-d-silva-S2Q5mdOrrVc-unsplash.jpg,0,NaN,NaN,NaN,unchosen,1000,50,50
57383,0,30,1,1,1,gain5,no_gain2,I,E,41,53,body_parts,objects,Stimuli/Experimental_stims/body_parts/lucaxx-freire-CacZwMexYdk-unsplash.jpg,Stimuli/Experimental_stims/objects/insung-yoon-w2JtIQQXoRU-unsplash.jpg,0,NaN,NaN,NaN,chosen,1000,50,50
57383,0,31,1,1,0,no_gain5,gain3,C,D,12,56,outdoor_scenes,objects,Stimuli/Experimental_stims/outdoor_scenes/aleksandra-boguslawska-MS7KD9Ti7FQ-unsplash.jpg,Stimuli/Experimental_stims/objects/jonathan-greenaway-Y4hGgeiFn3s-unsplash.jpg,0,NaN,NaN,NaN,chosen,3000,50,50
57383,0,32,1,1,0,no_gain2,gain5,E,I,39,13,body_parts,outdoor_scenes,Stimuli/Experimental_stims/body_parts/jonathan-borba-hTwH8QFkPMs-unsplash.jpg,Stimuli/Experimental_stims/outdoor_scenes/ashim-d-silva-S2Q5mdOrrVc-unsplash.jpg,0,NaN,NaN,NaN,unchosen,1000,50,50
57383,0,33,1,1,1,gain1,no_gain1,L,J,30,57,faces,objects,Stimuli/Experimental_stims/faces/good-faces-xmSWVeGEnJw-unsplash.jpg,Stimuli/Experimental_stims/objects/kuiye-chen-NuOGFo4PudE-unsplash.jpg,0,NaN,NaN,NaN,unchosen,1000,50,50
57383,0,34,1,1,1,gain4,no_gain3,B,F,33,45,faces,body_parts,Stimuli/Experimental_stims/faces/leilani-angel-K84vnnzxmTQ-unsplash.jpg,Stimuli/Experimental_stims/body_parts/sincerely-media-7TBFwUQA6Xk-unsplash.jpg,0,NaN,NaN,NaN,unchosen,1500,50,50
57383,0,35,1,1,1,gain5,no_gain5,I,C,41,12,body_parts,outdoor_scenes,Stimuli/Experimental_stims/body_parts/lucaxx-freire-CacZwMexYdk-unsplash.jpg,Stimuli/Experimental_stims/outdoor_scenes/aleksandra-boguslawska-MS7KD9Ti7FQ-unsplash.jpg,0,NaN,NaN,NaN,chosen,2000,50,50
57383,0,36,1,1,0,no_gain6,gain2,K,H,36,34,body_parts,faces,Stimuli/Experimental_stims/body_parts/callum-skelton-3KLMq7y46nA-unsplash.jpg,Stimuli/Experimental_stims/faces/olena-sergienko-0TSd6uCKTKc-unsplash.jpg,0,NaN,NaN,NaN,chosen,1000,50,50
57383,0,37,1,1,1,gain4,no_gain1,B,J,14,25,outdoor_scenes,faces,Stimuli/Experimental_stims/outdoor_scenes/bruno-van-der-kraan-qez8mNJ3ilU-unsplash.jpg,Stimuli/Experimental_stims/faces/aiony-haust-jmATI5Q_YgY-unsplash.jpg,0,NaN,NaN,NaN,chosen,2000,50,50
57383,0,38,1,1,1,gain6,no_gain5,G,C,50,12,objects,outdoor_scenes,Stimuli/Experimental_stims/objects/andrew-petrov-TVJqDat4MAw-unsplash.jpg,Stimuli/Experimental_stims/outdoor_scenes/aleksandra-boguslawska-MS7KD9Ti7FQ-unsplash.jpg,0,NaN,NaN,NaN,chosen,3000,50,50
57383,0,39,1,1,0,no_gain1,gain3,J,D,57,29,objects,faces,Stimuli/Experimental_stims/objects/kuiye-chen-NuOGFo4PudE-unsplash.jpg,Stimuli/Experimental_stims/faces/freddy-kearney-o-ioeoATbIM-unsplash.jpg,0,NaN,NaN,NaN,unchosen,1000,50,50
57383,0,40,1,1,0,no_gain5,gain4,C,B,40,33,body_parts,faces,Stimuli/Experimental_stims/body_parts/klara-kulikova-TcUfF24fUMY-unsplash.jpg,Stimuli/Experimental_stims/faces/leilani-angel-K84vnnzxmTQ-unsplash.jpg,0,NaN,NaN,NaN,unchosen,3000,50,50
57383,0,41,1,1,0,no_gain4,gain4,A,B,16,14,outdoor_scenes,outdoor_scenes,Stimuli/Experimental_stims/outdoor_scenes/jarrett-kow-1ZOyYPOBn7I-unsplash.jpg,Stimuli/Experimental_stims/outdoor_scenes/bruno-van-der-kraan-qez8mNJ3ilU-unsplash.jpg,0,NaN,NaN,NaN,chosen,1000,50,50
57383,0,42,1,1,0,no_gain6,gain1,K,L,54,30,objects,faces,Stimuli/Experimental_stims/objects/jess-bailey-nOeVi8DsN8U-unsplash.jpg,Stimuli/Experimental_stims/faces/good-faces-xmSWVeGEnJw-unsplash.jpg,0,NaN,NaN,NaN,unchosen,3000,50,50
57383,0,43,1,1,1,gain4,no_gain1,B,J,33,57,faces,objects,Stimuli/Experimental_stims/faces/leilani-angel-K84vnnzxmTQ-unsplash.jpg,Stimuli/Experimental_stims/objects/kuiye-chen-NuOGFo4PudE-unsplash.jpg,0,NaN,NaN,NaN,unchosen,2000,50,50
57383,0,44,1,1,0,no_gain4,gain2,A,H,16,34,outdoor_scenes,faces,Stimuli/Experimental_stims/outdoor_scenes/jarrett-kow-1ZOyYPOBn7I-unsplash.jpg,Stimuli/Experimental_stims/faces/olena-sergienko-0TSd6uCKTKc-unsplash.jpg,0,NaN,NaN,NaN,chosen,1500,50,50
57383,0,45,1,1,1,gain3,no_gain3,D,F,29,45,faces,body_parts,Stimuli/Experimental_stims/faces/freddy-kearney-o-ioeoATbIM-unsplash.jpg,Stimuli/Experimental_stims/body_parts/sincerely-media-7TBFwUQA6Xk-unsplash.jpg,0,NaN,NaN,NaN,unchosen,1000,50,50
57383,0,46,1,1,0,no_gain6,gain5,K,I,54,13,objects,outdoor_scenes,Stimuli/Experimental_stims/objects/jess-bailey-nOeVi8DsN8U-unsplash.jpg,Stimuli/Experimental_stims/outdoor_scenes/ashim-d-silva-S2Q5mdOrrVc-unsplash.jpg,0,NaN,NaN,NaN,unchosen,1500,50,50
57383,0,47,1,1,0,no_gain3,gain4,F,B,35,14,faces,outdoor_scenes,Stimuli/Experimental_stims/faces/rikonavt-HQjfrvdTfak-unsplash.jpg,Stimuli/Experimental_stims/outdoor_scenes/bruno-van-der-kraan-qez8mNJ3ilU-unsplash.jpg,0,NaN,NaN,NaN,chosen,1000,50,50
57383,0,48,1,1,0,no_gain1,gain5,J,I,57,13,objects,outdoor_scenes,Stimuli/Experimental_stims/objects/kuiye-chen-NuOGFo4PudE-unsplash.jpg,Stimuli/Experimental_stims/outdoor_scenes/ashim-d-silva-S2Q5mdOrrVc-unsplash.jpg,0,NaN,NaN,NaN,unchosen,1500,50,50
57383,0,49,1,1,1,gain3,no_gain4,D,A,29,48,faces,objects,Stimuli/Experimental_stims/faces/freddy-kearney-o-ioeoATbIM-unsplash.jpg,Stimuli/Experimental_stims/objects/alexander-andrews-JYGnB9gTCls-unsplash.jpg,0,NaN,NaN,NaN,unchosen,2000,50,50
57383,0,50,1,1,0,no_gain3,gain2,F,H,35,34,faces,faces,Stimuli/Experimental_stims/faces/rikonavt-HQjfrvdTfak-unsplash.jpg,Stimuli/Experimental_stims/faces/olena-sergienko-0TSd6uCKTKc-unsplash.jpg,0,NaN,NaN,NaN,chosen,1000,50,50
57383,0,51,1,1,1,gain4,no_gain2,B,E,33,39,faces,body_parts,Stimuli/Experimental_stims/faces/leilani-angel-K84vnnzxmTQ-unsplash.jpg,Stimuli/Experimental_stims/body_parts/jonathan-borba-hTwH8QFkPMs-unsplash.jpg,0,NaN,NaN,NaN,unchosen,1500,50,50
57383,0,52,1,1,0,no_gain6,gain1,K,L,36,42,body_parts,body_parts,Stimuli/Experimental_stims/body_parts/callum-skelton-3KLMq7y46nA-unsplash.jpg,Stimuli/Experimental_stims/body_parts/lucrezia-carnelos-kn6QrWtnAtY-unsplash.jpg,0,NaN,NaN,NaN,chosen,1500,50,50
57383,0,53,1,1,0,no_gain6,gain2,K,H,54,23,objects,outdoor_scenes,Stimuli/Experimental_stims/objects/jess-bailey-nOeVi8DsN8U-unsplash.jpg,Stimuli/Experimental_stims/outdoor_scenes/yuriy-bogdanov-W51VK3Obcj0-unsplash.jpg,0,NaN,NaN,NaN,unchosen,2000,50,50
57383,0,54,1,1,0,no_gain3,gain5,F,I,35,41,faces,body_parts,Stimuli/Experimental_stims/faces/rikonavt-HQjfrvdTfak-unsplash.jpg,Stimuli/Experimental_stims/body_parts/lucaxx-freire-CacZwMexYdk-unsplash.jpg,0,NaN,NaN,NaN,chosen,2000,50,50
57383,0,55,1,1,1,gain4,no_gain6,B,K,14,36,outdoor_scenes,body_parts,Stimuli/Experimental_stims/outdoor_scenes/bruno-van-der-kraan-qez8mNJ3ilU-unsplash.jpg,Stimuli/Experimental_stims/body_parts/callum-skelton-3KLMq7y46nA-unsplash.jpg,0,NaN,NaN,NaN,chosen,1000,50,50
57383,0,56,1,1,0,no_gain1,gain2,J,H,57,23,objects,outdoor_scenes,Stimuli/Experimental_stims/objects/kuiye-chen-NuOGFo4PudE-unsplash.jpg,Stimuli/Experimental_stims/outdoor_scenes/yuriy-bogdanov-W51VK3Obcj0-unsplash.jpg,0,NaN,NaN,NaN,unchosen,2000,50,50
57383,0,57,1,1,1,gain3,no_gain2,D,E,29,39,faces,body_parts,Stimuli/Experimental_stims/faces/freddy-kearney-o-ioeoATbIM-unsplash.jpg,Stimuli/Experimental_stims/body_parts/jonathan-borba-hTwH8QFkPMs-unsplash.jpg,0,NaN,NaN,NaN,unchosen,1000,50,50
57383,0,58,1,1,1,gain5,no_gain5,I,C,13,40,outdoor_scenes,body_parts,Stimuli/Experimental_stims/outdoor_scenes/ashim-d-silva-S2Q5mdOrrVc-unsplash.jpg,Stimuli/Experimental_stims/body_parts/klara-kulikova-TcUfF24fUMY-unsplash.jpg,0,NaN,NaN,NaN,unchosen,1000,50,50
57383,0,59,1,1,0,no_gain4,gain6,A,G,16,50,outdoor_scenes,objects,Stimuli/Experimental_stims/outdoor_scenes/jarrett-kow-1ZOyYPOBn7I-unsplash.jpg,Stimuli/Experimental_stims/objects/andrew-petrov-TVJqDat4MAw-unsplash.jpg,0,NaN,NaN,NaN,chosen,1500,50,50
57383,0,60,1,1,0,no_gain2,gain4,E,B,53,14,objects,outdoor_scenes,Stimuli/Experimental_stims/objects/insung-yoon-w2JtIQQXoRU-unsplash.jpg,Stimuli/Experimental_stims/outdoor_scenes/bruno-van-der-kraan-qez8mNJ3ilU-unsplash.jpg,0,NaN,NaN,NaN,chosen,2000,50,50
57383,0,61,1,1,1,gain1,no_gain5,L,C,42,12,body_parts,outdoor_scenes,Stimuli/Experimental_stims/body_parts/lucrezia-carnelos-kn6QrWtnAtY-unsplash.jpg,Stimuli/Experimental_stims/outdoor_scenes/aleksandra-boguslawska-MS7KD9Ti7FQ-unsplash.jpg,0,NaN,NaN,NaN,chosen,1000,50,50
57383,0,62,1,1,0,no_gain2,gain2,E,H,39,23,body_parts,outdoor_scenes,Stimuli/Experimental_stims/body_parts/jonathan-borba-hTwH8QFkPMs-unsplash.jpg,Stimuli/Experimental_stims/outdoor_scenes/yuriy-bogdanov-W51VK3Obcj0-unsplash.jpg,0,NaN,NaN,NaN,unchosen,3500,50,50
57383,0,63,1,1,0,no_gain3,gain3,F,D,35,56,faces,objects,Stimuli/Experimental_stims/faces/rikonavt-HQjfrvdTfak-unsplash.jpg,Stimuli/Experimental_stims/objects/jonathan-greenaway-Y4hGgeiFn3s-unsplash.jpg,0,NaN,NaN,NaN,chosen,1500,50,50
57383,0,64,1,1,1,gain5,no_gain6,I,K,41,36,body_parts,body_parts,Stimuli/Experimental_stims/body_parts/lucaxx-freire-CacZwMexYdk-unsplash.jpg,Stimuli/Experimental_stims/body_parts/callum-skelton-3KLMq7y46nA-unsplash.jpg,0,NaN,NaN,NaN,chosen,2000,50,50
57383,0,65,1,1,0,no_gain5,gain6,C,G,40,22,body_parts,outdoor_scenes,Stimuli/Experimental_stims/body_parts/klara-kulikova-TcUfF24fUMY-unsplash.jpg,Stimuli/Experimental_stims/outdoor_scenes/stephen-leonardi-gyIRjKPXupE-unsplash.jpg,0,NaN,NaN,NaN,unchosen,3500,50,50
57383,0,66,1,1,0,no_gain3,gain5,F,I,45,13,body_parts,outdoor_scenes,Stimuli/Experimental_stims/body_parts/sincerely-media-7TBFwUQA6Xk-unsplash.jpg,Stimuli/Experimental_stims/outdoor_scenes/ashim-d-silva-S2Q5mdOrrVc-unsplash.jpg,0,NaN,NaN,NaN,unchosen,3000,50,50
57383,0,67,1,1,0,no_gain5,gain1,C,L,40,30,body_parts,faces,Stimuli/Experimental_stims/body_parts/klara-kulikova-TcUfF24fUMY-unsplash.jpg,Stimuli/Experimental_stims/faces/good-faces-xmSWVeGEnJw-unsplash.jpg,0,NaN,NaN,NaN,unchosen,1500,50,50
57383,0,68,1,1,0,no_gain2,gain1,E,L,53,42,objects,body_parts,Stimuli/Experimental_stims/objects/insung-yoon-w2JtIQQXoRU-unsplash.jpg,Stimuli/Experimental_stims/body_parts/lucrezia-carnelos-kn6QrWtnAtY-unsplash.jpg,0,NaN,NaN,NaN,chosen,2000,50,50
57383,0,69,1,1,1,gain1,no_gain1,L,J,42,25,body_parts,faces,Stimuli/Experimental_stims/body_parts/lucrezia-carnelos-kn6QrWtnAtY-unsplash.jpg,Stimuli/Experimental_stims/faces/aiony-haust-jmATI5Q_YgY-unsplash.jpg,0,NaN,NaN,NaN,chosen,3000,50,50
57383,0,70,1,1,1,gain2,no_gain1,H,J,34,25,faces,faces,Stimuli/Experimental_stims/faces/olena-sergienko-0TSd6uCKTKc-unsplash.jpg,Stimuli/Experimental_stims/faces/aiony-haust-jmATI5Q_YgY-unsplash.jpg,0,NaN,NaN,NaN,chosen,1500,50,50
57383,0,71,1,1,1,gain2,no_gain2,H,E,34,53,faces,objects,Stimuli/Experimental_stims/faces/olena-sergienko-0TSd6uCKTKc-unsplash.jpg,Stimuli/Experimental_stims/objects/insung-yoon-w2JtIQQXoRU-unsplash.jpg,0,NaN,NaN,NaN,chosen,3500,50,50
57383,0,72,1,1,1,gain6,no_gain2,G,E,50,53,objects,objects,Stimuli/Experimental_stims/objects/andrew-petrov-TVJqDat4MAw-unsplash.jpg,Stimuli/Experimental_stims/objects/insung-yoon-w2JtIQQXoRU-unsplash.jpg,0,NaN,NaN,NaN,chosen,1000,50,50
57383,0,73,1,1,1,gain6,no_gain1,G,J,22,57,outdoor_scenes,objects,Stimuli/Experimental_stims/outdoor_scenes/stephen-leonardi-gyIRjKPXupE-unsplash.jpg,Stimuli/Experimental_stims/objects/kuiye-chen-NuOGFo4PudE-unsplash.jpg,0,NaN,NaN,NaN,unchosen,1500,50,50
57383,0,74,1,1,1,gain2,no_gain5,H,C,34,12,faces,outdoor_scenes,Stimuli/Experimental_stims/faces/olena-sergienko-0TSd6uCKTKc-unsplash.jpg,Stimuli/Experimental_stims/outdoor_scenes/aleksandra-boguslawska-MS7KD9Ti7FQ-unsplash.jpg,0,NaN,NaN,NaN,chosen,1500,50,50
57383,0,75,1,1,1,gain3,no_gain6,D,K,29,54,faces,objects,Stimuli/Experimental_stims/faces/freddy-kearney-o-ioeoATbIM-unsplash.jpg,Stimuli/Experimental_stims/objects/jess-bailey-nOeVi8DsN8U-unsplash.jpg,0,NaN,NaN,NaN,unchosen,1000,50,50
57383,0,76,1,1,0,no_gain2,gain6,E,G,39,22,body_parts,outdoor_scenes,Stimuli/Experimental_stims/body_parts/jonathan-borba-hTwH8QFkPMs-unsplash.jpg,Stimuli/Experimental_stims/outdoor_scenes/stephen-leonardi-gyIRjKPXupE-unsplash.jpg,0,NaN,NaN,NaN,unchosen,1500,50,50
57383,0,77,2,2,0,no_gain4,gain4,A,B,48,33,objects,faces,Stimuli/Experimental_stims/objects/alexander-andrews-JYGnB9gTCls-unsplash.jpg,Stimuli/Experimental_stims/faces/leilani-angel-K84vnnzxmTQ-unsplash.jpg,0,NaN,NaN,NaN,unchosen,2000,50,50
57383,0,78,2,2,1,gain1,no_gain4,L,A,42,16,body_parts,outdoor_scenes,Stimuli/Experimental_stims/body_parts/lucrezia-carnelos-kn6QrWtnAtY-unsplash.jpg,Stimuli/Experimental_stims/outdoor_scenes/jarrett-kow-1ZOyYPOBn7I-unsplash.jpg,0,NaN,NaN,NaN,chosen,1000,50,50
57383,0,79,2,2,1,gain4,no_gain1,B,J,14,25,outdoor_scenes,faces,Stimuli/Experimental_stims/outdoor_scenes/bruno-van-der-kraan-qez8mNJ3ilU-unsplash.jpg,Stimuli/Experimental_stims/faces/aiony-haust-jmATI5Q_YgY-unsplash.jpg,0,NaN,NaN,NaN,chosen,1000,50,50
57383,0,80,2,2,0,no_gain4,gain5,A,I,16,41,outdoor_scenes,body_parts,Stimuli/Experimental_stims/outdoor_scenes/jarrett-kow-1ZOyYPOBn7I-unsplash.jpg,Stimuli/Experimental_stims/body_parts/lucaxx-freire-CacZwMexYdk-unsplash.jpg,0,NaN,NaN,NaN,chosen,2000,50,50
57383,0,81,2,2,0,no_gain6,gain6,K,G,54,22,objects,outdoor_scenes,Stimuli/Experimental_stims/objects/jess-bailey-nOeVi8DsN8U-unsplash.jpg,Stimuli/Experimental_stims/outdoor_scenes/stephen-leonardi-gyIRjKPXupE-unsplash.jpg,0,NaN,NaN,NaN,unchosen,1500,50,50
57383,0,82,2,2,0,no_gain1,gain1,J,L,25,42,faces,body_parts,Stimuli/Experimental_stims/faces/aiony-haust-jmATI5Q_YgY-unsplash.jpg,Stimuli/Experimental_stims/body_parts/lucrezia-carnelos-kn6QrWtnAtY-unsplash.jpg,0,NaN,NaN,NaN,chosen,1500,50,50
57383,0,83,2,2,1,gain4,no_gain6,B,K,33,54,faces,objects,Stimuli/Experimental_stims/faces/leilani-angel-K84vnnzxmTQ-unsplash.jpg,Stimuli/Experimental_stims/objects/jess-bailey-nOeVi8DsN8U-unsplash.jpg,0,NaN,NaN,NaN,unchosen,1000,50,50
57383,0,84,2,2,1,gain3,no_gain1,D,J,29,57,faces,objects,Stimuli/Experimental_stims/faces/freddy-kearney-o-ioeoATbIM-unsplash.jpg,Stimuli/Experimental_stims/objects/kuiye-chen-NuOGFo4PudE-unsplash.jpg,0,NaN,NaN,NaN,unchosen,1000,50,50
57383,0,85,2,2,1,gain3,no_gain6,D,K,29,54,faces,objects,Stimuli/Experimental_stims/faces/freddy-kearney-o-ioeoATbIM-unsplash.jpg,Stimuli/Experimental_stims/objects/jess-bailey-nOeVi8DsN8U-unsplash.jpg,0,NaN,NaN,NaN,unchosen,1500,50,50
57383,0,86,2,2,1,gain1,no_gain3,L,F,42,35,body_parts,faces,Stimuli/Experimental_stims/body_parts/lucrezia-carnelos-kn6QrWtnAtY-unsplash.jpg,Stimuli/Experimental_stims/faces/rikonavt-HQjfrvdTfak-unsplash.jpg,0,NaN,NaN,NaN,chosen,3000,50,50
57383,0,87,2,2,0,no_gain4,gain3,A,D,16,56,outdoor_scenes,objects,Stimuli/Experimental_stims/outdoor_scenes/jarrett-kow-1ZOyYPOBn7I-unsplash.jpg,Stimuli/Experimental_stims/objects/jonathan-greenaway-Y4hGgeiFn3s-unsplash.jpg,0,NaN,NaN,NaN,chosen,1500,50,50
57383,0,88,2,2,0,no_gain2,gain6,E,G,53,50,objects,objects,Stimuli/Experimental_stims/objects/insung-yoon-w2JtIQQXoRU-unsplash.jpg,Stimuli/Experimental_stims/objects/andrew-petrov-TVJqDat4MAw-unsplash.jpg,0,NaN,NaN,NaN,chosen,3000,50,50
57383,0,89,2,2,0,no_gain6,gain2,K,H,36,34,body_parts,faces,Stimuli/Experimental_stims/body_parts/callum-skelton-3KLMq7y46nA-unsplash.jpg,Stimuli/Experimental_stims/faces/olena-sergienko-0TSd6uCKTKc-unsplash.jpg,0,NaN,NaN,NaN,chosen,1000,50,50
57383,0,90,2,2,0,no_gain6,gain1,K,L,54,30,objects,faces,Stimuli/Experimental_stims/objects/jess-bailey-nOeVi8DsN8U-unsplash.jpg,Stimuli/Experimental_stims/faces/good-faces-xmSWVeGEnJw-unsplash.jpg,0,NaN,NaN,NaN,unchosen,3000,50,50
57383,0,91,2,2,1,gain6,no_gain2,G,E,22,39,outdoor_scenes,body_parts,Stimuli/Experimental_stims/outdoor_scenes/stephen-leonardi-gyIRjKPXupE-unsplash.jpg,Stimuli/Experimental_stims/body_parts/jonathan-borba-hTwH8QFkPMs-unsplash.jpg,0,NaN,NaN,NaN,unchosen,1000,50,50
57383,0,92,2,2,0,no_gain6,gain2,K,H,54,23,objects,outdoor_scenes,Stimuli/Experimental_stims/objects/jess-bailey-nOeVi8DsN8U-unsplash.jpg,Stimuli/Experimental_stims/outdoor_scenes/yuriy-bogdanov-W51VK3Obcj0-unsplash.jpg,0,NaN,NaN,NaN,unchosen,1500,50,50
57383,0,93,2,2,1,gain2,no_gain3,H,F,23,45,outdoor_scenes,body_parts,Stimuli/Experimental_stims/outdoor_scenes/yuriy-bogdanov-W51VK3Obcj0-unsplash.jpg,Stimuli/Experimental_stims/body_parts/sincerely-media-7TBFwUQA6Xk-unsplash.jpg,0,NaN,NaN,NaN,unchosen,3500,50,50
57383,0,94,2,2,0,no_gain2,gain1,E,L,39,30,body_parts,faces,Stimuli/Experimental_stims/body_parts/jonathan-borba-hTwH8QFkPMs-unsplash.jpg,Stimuli/Experimental_stims/faces/good-faces-xmSWVeGEnJw-unsplash.jpg,0,NaN,NaN,NaN,unchosen,1500,50,50
57383,0,95,2,2,0,no_gain4,gain4,A,B,16,14,outdoor_scenes,outdoor_scenes,Stimuli/Experimental_stims/outdoor_scenes/jarrett-kow-1ZOyYPOBn7I-unsplash.jpg,Stimuli/Experimental_stims/outdoor_scenes/bruno-van-der-kraan-qez8mNJ3ilU-unsplash.jpg,0,NaN,NaN,NaN,chosen,2000,50,50
57383,0,96,2,2,0,no_gain4,gain2,A,H,48,23,objects,outdoor_scenes,Stimuli/Experimental_stims/objects/alexander-andrews-JYGnB9gTCls-unsplash.jpg,Stimuli/Experimental_stims/outdoor_scenes/yuriy-bogdanov-W51VK3Obcj0-unsplash.jpg,0,NaN,NaN,NaN,unchosen,2000,50,50
57383,0,97,2,2,0,no_gain2,gain3,E,D,53,56,objects,objects,Stimuli/Experimental_stims/objects/insung-yoon-w2JtIQQXoRU-unsplash.jpg,Stimuli/Experimental_stims/objects/jonathan-greenaway-Y4hGgeiFn3s-unsplash.jpg,0,NaN,NaN,NaN,chosen,1000,50,50
57383,0,98,2,2,0,no_gain5,gain3,C,D,12,56,outdoor_scenes,objects,Stimuli/Experimental_stims/outdoor_scenes/aleksandra-boguslawska-MS7KD9Ti7FQ-unsplash.jpg,Stimuli/Experimental_stims/objects/jonathan-greenaway-Y4hGgeiFn3s-unsplash.jpg,0,NaN,NaN,NaN,chosen,1500,50,50
57383,0,99,2,2,1,gain4,no_gain3,B,F,33,45,faces,body_parts,Stimuli/Experimental_stims/faces/leilani-angel-K84vnnzxmTQ-unsplash.jpg,Stimuli/Experimental_stims/body_parts/sincerely-media-7TBFwUQA6Xk-unsplash.jpg,0,NaN,NaN,NaN,unchosen,1000,50,50
57383,0,100,2,2,1,gain5,no_gain2,I,E,13,39,outdoor_scenes,body_parts,Stimuli/Experimental_stims/outdoor_scenes/ashim-d-silva-S2Q5mdOrrVc-unsplash.jpg,Stimuli/Experimental_stims/body_parts/jonathan-borba-hTwH8QFkPMs-unsplash.jpg,0,NaN,NaN,NaN,unchosen,2000,50,50
57383,0,101,2,2,1,gain6,no_gain5,G,C,50,12,objects,outdoor_scenes,Stimuli/Experimental_stims/objects/andrew-petrov-TVJqDat4MAw-unsplash.jpg,Stimuli/Experimental_stims/outdoor_scenes/aleksandra-boguslawska-MS7KD9Ti7FQ-unsplash.jpg,0,NaN,NaN,NaN,chosen,2000,50,50
57383,0,102,2,2,0,no_gain5,gain4,C,B,12,14,outdoor_scenes,outdoor_scenes,Stimuli/Experimental_stims/outdoor_scenes/aleksandra-boguslawska-MS7KD9Ti7FQ-unsplash.jpg,Stimuli/Experimental_stims/outdoor_scenes/bruno-van-der-kraan-qez8mNJ3ilU-unsplash.jpg,0,NaN,NaN,NaN,chosen,3500,50,50
57383,0,103,2,2,1,gain5,no_gain2,I,E,41,53,body_parts,objects,Stimuli/Experimental_stims/body_parts/lucaxx-freire-CacZwMexYdk-unsplash.jpg,Stimuli/Experimental_stims/objects/insung-yoon-w2JtIQQXoRU-unsplash.jpg,0,NaN,NaN,NaN,chosen,3000,50,50
57383,0,104,2,2,0,no_gain6,gain6,K,G,36,50,body_parts,objects,Stimuli/Experimental_stims/body_parts/callum-skelton-3KLMq7y46nA-unsplash.jpg,Stimuli/Experimental_stims/objects/andrew-petrov-TVJqDat4MAw-unsplash.jpg,0,NaN,NaN,NaN,chosen,1000,50,50
57383,0,105,2,2,1,gain6,no_gain1,G,J,22,57,outdoor_scenes,objects,Stimuli/Experimental_stims/outdoor_scenes/stephen-leonardi-gyIRjKPXupE-unsplash.jpg,Stimuli/Experimental_stims/objects/kuiye-chen-NuOGFo4PudE-unsplash.jpg,0,NaN,NaN,NaN,unchosen,2000,50,50
57383,0,106,2,2,1,gain5,no_gain3,I,F,13,45,outdoor_scenes,body_parts,Stimuli/Experimental_stims/outdoor_scenes/ashim-d-silva-S2Q5mdOrrVc-unsplash.jpg,Stimuli/Experimental_stims/body_parts/sincerely-media-7TBFwUQA6Xk-unsplash.jpg,0,NaN,NaN,NaN,unchosen,1000,50,50
57383,0,107,2,2,0,no_gain1,gain6,J,G,25,50,faces,objects,Stimuli/Experimental_stims/faces/aiony-haust-jmATI5Q_YgY-unsplash.jpg,Stimuli/Experimental_stims/objects/andrew-petrov-TVJqDat4MAw-unsplash.jpg,0,NaN,NaN,NaN,chosen,1000,50,50
57383,0,108,2,2,1,gain2,no_gain5,H,C,23,40,outdoor_scenes,body_parts,Stimuli/Experimental_stims/outdoor_scenes/yuriy-bogdanov-W51VK3Obcj0-unsplash.jpg,Stimuli/Experimental_stims/body_parts/klara-kulikova-TcUfF24fUMY-unsplash.jpg,0,NaN,NaN,NaN,unchosen,3000,50,50
57383,0,109,2,2,0,no_gain6,gain4,K,B,36,14,body_parts,outdoor_scenes,Stimuli/Experimental_stims/body_parts/callum-skelton-3KLMq7y46nA-unsplash.jpg,Stimuli/Experimental_stims/outdoor_scenes/bruno-van-der-kraan-qez8mNJ3ilU-unsplash.jpg,0,NaN,NaN,NaN,chosen,1000,50,50
57383,0,110,2,2,1,gain2,no_gain3,H,F,34,35,faces,faces,Stimuli/Experimental_stims/faces/olena-sergienko-0TSd6uCKTKc-unsplash.jpg,Stimuli/Experimental_stims/faces/rikonavt-HQjfrvdTfak-unsplash.jpg,0,NaN,NaN,NaN,chosen,1000,50,50
57383,0,111,2,2,1,gain4,no_gain2,B,E,33,39,faces,body_parts,Stimuli/Experimental_stims/faces/leilani-angel-K84vnnzxmTQ-unsplash.jpg,Stimuli/Experimental_stims/body_parts/jonathan-borba-hTwH8QFkPMs-unsplash.jpg,0,NaN,NaN,NaN,unchosen,1000,50,50
57383,0,112,2,2,0,no_gain6,gain1,K,L,36,42,body_parts,body_parts,Stimuli/Experimental_stims/body_parts/callum-skelton-3KLMq7y46nA-unsplash.jpg,Stimuli/Experimental_stims/body_parts/lucrezia-carnelos-kn6QrWtnAtY-unsplash.jpg,0,NaN,NaN,NaN,chosen,1500,50,50
57383,0,113,2,2,0,no_gain5,gain1,C,L,40,30,body_parts,faces,Stimuli/Experimental_stims/body_parts/klara-kulikova-TcUfF24fUMY-unsplash.jpg,Stimuli/Experimental_stims/faces/good-faces-xmSWVeGEnJw-unsplash.jpg,0,NaN,NaN,NaN,unchosen,3500,50,50
57383,0,114,2,2,0,no_gain5,gain6,C,G,40,22,body_parts,outdoor_scenes,Stimuli/Experimental_stims/body_parts/klara-kulikova-TcUfF24fUMY-unsplash.jpg,Stimuli/Experimental_stims/outdoor_scenes/stephen-leonardi-gyIRjKPXupE-unsplash.jpg,0,NaN,NaN,NaN,unchosen,1000,50,50
57383,0,115,2,2,0,no_gain5,gain1,C,L,12,42,outdoor_scenes,body_parts,Stimuli/Experimental_stims/outdoor_scenes/aleksandra-boguslawska-MS7KD9Ti7FQ-unsplash.jpg,Stimuli/Experimental_stims/body_parts/lucrezia-carnelos-kn6QrWtnAtY-unsplash.jpg,0,NaN,NaN,NaN,chosen,1000,50,50
57383,0,116,2,2,1,gain5,no_gain1,I,J,41,25,body_parts,faces,Stimuli/Experimental_stims/body_parts/lucaxx-freire-CacZwMexYdk-unsplash.jpg,Stimuli/Experimental_stims/faces/aiony-haust-jmATI5Q_YgY-unsplash.jpg,0,NaN,NaN,NaN,chosen,1500,50,50
57383,0,117,2,2,0,no_gain2,gain4,E,B,53,14,objects,outdoor_scenes,Stimuli/Experimental_stims/objects/insung-yoon-w2JtIQQXoRU-unsplash.jpg,Stimuli/Experimental_stims/outdoor_scenes/bruno-van-der-kraan-qez8mNJ3ilU-unsplash.jpg,0,NaN,NaN,NaN,chosen,2000,50,50
57383,0,118,2,2,0,no_gain5,gain5,C,I,40,13,body_parts,outdoor_scenes,Stimuli/Experimental_stims/body_parts/klara-kulikova-TcUfF24fUMY-unsplash.jpg,Stimuli/Experimental_stims/outdoor_scenes/ashim-d-silva-S2Q5mdOrrVc-unsplash.jpg,0,NaN,NaN,NaN,unchosen,1000,50,50
57383,0,119,2,2,1,gain4,no_gain3,B,F,14,35,outdoor_scenes,faces,Stimuli/Experimental_stims/outdoor_scenes/bruno-van-der-kraan-qez8mNJ3ilU-unsplash.jpg,Stimuli/Experimental_stims/faces/rikonavt-HQjfrvdTfak-unsplash.jpg,0,NaN,NaN,NaN,chosen,1000,50,50
57383,0,120,2,2,1,gain4,no_gain5,B,C,33,40,faces,body_parts,Stimuli/Experimental_stims/faces/leilani-angel-K84vnnzxmTQ-unsplash.jpg,Stimuli/Experimental_stims/body_parts/klara-kulikova-TcUfF24fUMY-unsplash.jpg,0,NaN,NaN,NaN,unchosen,1500,50,50
57383,0,121,2,2,1,gain2,no_gain4,H,A,34,16,faces,outdoor_scenes,Stimuli/Experimental_stims/faces/olena-sergienko-0TSd6uCKTKc-unsplash.jpg,Stimuli/Experimental_stims/outdoor_scenes/jarrett-kow-1ZOyYPOBn7I-unsplash.jpg,0,NaN,NaN,NaN,chosen,1500,50,50
57383,0,122,2,2,0,no_gain6,gain5,K,I,36,41,body_parts,body_parts,Stimuli/Experimental_stims/body_parts/callum-skelton-3KLMq7y46nA-unsplash.jpg,Stimuli/Experimental_stims/body_parts/lucaxx-freire-CacZwMexYdk-unsplash.jpg,0,NaN,NaN,NaN,chosen,1500,50,50
57383,0,123,2,2,1,gain3,no_gain6,D,K,56,36,objects,body_parts,Stimuli/Experimental_stims/objects/jonathan-greenaway-Y4hGgeiFn3s-unsplash.jpg,Stimuli/Experimental_stims/body_parts/callum-skelton-3KLMq7y46nA-unsplash.jpg,0,NaN,NaN,NaN,chosen,3000,50,50
57383,0,124,2,2,1,gain3,no_gain1,D,J,56,25,objects,faces,Stimuli/Experimental_stims/objects/jonathan-greenaway-Y4hGgeiFn3s-unsplash.jpg,Stimuli/Experimental_stims/faces/aiony-haust-jmATI5Q_YgY-unsplash.jpg,0,NaN,NaN,NaN,chosen,3500,50,50
57383,0,125,2,2,1,gain5,no_gain1,I,J,13,57,outdoor_scenes,objects,Stimuli/Experimental_stims/outdoor_scenes/ashim-d-silva-S2Q5mdOrrVc-unsplash.jpg,Stimuli/Experimental_stims/objects/kuiye-chen-NuOGFo4PudE-unsplash.jpg,0,NaN,NaN,NaN,unchosen,1500,50,50
57383,0,126,2,2,1,gain2,no_gain1,H,J,34,25,faces,faces,Stimuli/Experimental_stims/faces/olena-sergienko-0TSd6uCKTKc-unsplash.jpg,Stimuli/Experimental_stims/faces/aiony-haust-jmATI5Q_YgY-unsplash.jpg,0,NaN,NaN,NaN,chosen,1500,50,50
57383,0,127,2,2,0,no_gain3,gain6,F,G,45,22,body_parts,outdoor_scenes,Stimuli/Experimental_stims/body_parts/sincerely-media-7TBFwUQA6Xk-unsplash.jpg,Stimuli/Experimental_stims/outdoor_scenes/stephen-leonardi-gyIRjKPXupE-unsplash.jpg,0,NaN,NaN,NaN,unchosen,2000,50,50
57383,0,128,2,2,1,gain5,no_gain3,I,F,41,35,body_parts,faces,Stimuli/Experimental_stims/body_parts/lucaxx-freire-CacZwMexYdk-unsplash.jpg,Stimuli/Experimental_stims/faces/rikonavt-HQjfrvdTfak-unsplash.jpg,0,NaN,NaN,NaN,chosen,1000,50,50
57383,0,129,2,2,1,gain3,no_gain5,D,C,29,40,faces,body_parts,Stimuli/Experimental_stims/faces/freddy-kearney-o-ioeoATbIM-unsplash.jpg,Stimuli/Experimental_stims/body_parts/klara-kulikova-TcUfF24fUMY-unsplash.jpg,0,NaN,NaN,NaN,unchosen,3000,50,50
57383,0,130,2,2,1,gain2,no_gain2,H,E,34,53,faces,objects,Stimuli/Experimental_stims/faces/olena-sergienko-0TSd6uCKTKc-unsplash.jpg,Stimuli/Experimental_stims/objects/insung-yoon-w2JtIQQXoRU-unsplash.jpg,0,NaN,NaN,NaN,chosen,1000,50,50
57383,0,131,2,2,0,no_gain6,gain5,K,I,54,13,objects,outdoor_scenes,Stimuli/Experimental_stims/objects/jess-bailey-nOeVi8DsN8U-unsplash.jpg,Stimuli/Experimental_stims/outdoor_scenes/ashim-d-silva-S2Q5mdOrrVc-unsplash.jpg,0,NaN,NaN,NaN,unchosen,1500,50,50
57383,0,132,2,2,0,no_gain3,gain1,F,L,45,30,body_parts,faces,Stimuli/Experimental_stims/body_parts/sincerely-media-7TBFwUQA6Xk-unsplash.jpg,Stimuli/Experimental_stims/faces/good-faces-xmSWVeGEnJw-unsplash.jpg,0,NaN,NaN,NaN,unchosen,1000,50,50
57383,0,133,2,2,1,gain6,no_gain4,G,A,50,16,objects,outdoor_scenes,Stimuli/Experimental_stims/objects/andrew-petrov-TVJqDat4MAw-unsplash.jpg,Stimuli/Experimental_stims/outdoor_scenes/jarrett-kow-1ZOyYPOBn7I-unsplash.jpg,0,NaN,NaN,NaN,chosen,1500,50,50
57383,0,134,2,2,0,no_gain5,gain2,C,H,12,34,outdoor_scenes,faces,Stimuli/Experimental_stims/outdoor_scenes/aleksandra-boguslawska-MS7KD9Ti7FQ-unsplash.jpg,Stimuli/Experimental_stims/faces/olena-sergienko-0TSd6uCKTKc-unsplash.jpg,0,NaN,NaN,NaN,chosen,2000,50,50
57383,0,135,2,2,1,gain3,no_gain2,D,E,29,39,faces,body_parts,Stimuli/Experimental_stims/faces/freddy-kearney-o-ioeoATbIM-unsplash.jpg,Stimuli/Experimental_stims/body_parts/jonathan-borba-hTwH8QFkPMs-unsplash.jpg,0,NaN,NaN,NaN,unchosen,1500,50,50
57383,0,136,2,2,1,gain3,no_gain4,D,A,29,48,faces,objects,Stimuli/Experimental_stims/faces/freddy-kearney-o-ioeoATbIM-unsplash.jpg,Stimuli/Experimental_stims/objects/alexander-andrews-JYGnB9gTCls-unsplash.jpg,0,NaN,NaN,NaN,unchosen,1000,50,50
57383,0,137,2,2,1,gain4,no_gain1,B,J,33,57,faces,objects,Stimuli/Experimental_stims/faces/leilani-angel-K84vnnzxmTQ-unsplash.jpg,Stimuli/Experimental_stims/objects/kuiye-chen-NuOGFo4PudE-unsplash.jpg,0,NaN,NaN,NaN,unchosen,1500,50,50
57383,0,138,2,2,0,no_gain3,gain3,F,D,45,29,body_parts,faces,Stimuli/Experimental_stims/body_parts/sincerely-media-7TBFwUQA6Xk-unsplash.jpg,Stimuli/Experimental_stims/faces/freddy-kearney-o-ioeoATbIM-unsplash.jpg,0,NaN,NaN,NaN,unchosen,1000,50,50
57383,0,139,2,2,0,no_gain2,gain2,E,H,39,23,body_parts,outdoor_scenes,Stimuli/Experimental_stims/body_parts/jonathan-borba-hTwH8QFkPMs-unsplash.jpg,Stimuli/Experimental_stims/outdoor_scenes/yuriy-bogdanov-W51VK3Obcj0-unsplash.jpg,0,NaN,NaN,NaN,unchosen,1000,50,50
57383,0,140,2,2,0,no_gain1,gain2,J,H,57,23,objects,outdoor_scenes,Stimuli/Experimental_stims/objects/kuiye-chen-NuOGFo4PudE-unsplash.jpg,Stimuli/Experimental_stims/outdoor_scenes/yuriy-bogdanov-W51VK3Obcj0-unsplash.jpg,0,NaN,NaN,NaN,unchosen,2000,50,50
57383,0,141,2,2,1,gain1,no_gain1,L,J,30,57,faces,objects,Stimuli/Experimental_stims/faces/good-faces-xmSWVeGEnJw-unsplash.jpg,Stimuli/Experimental_stims/objects/kuiye-chen-NuOGFo4PudE-unsplash.jpg,0,NaN,NaN,NaN,unchosen,3000,50,50
57383,0,142,2,2,1,gain6,no_gain3,G,F,50,35,objects,faces,Stimuli/Experimental_stims/objects/andrew-petrov-TVJqDat4MAw-unsplash.jpg,Stimuli/Experimental_stims/faces/rikonavt-HQjfrvdTfak-unsplash.jpg,0,NaN,NaN,NaN,chosen,1500,50,50
57383,0,143,2,2,0,no_gain3,gain3,F,D,35,56,faces,objects,Stimuli/Experimental_stims/faces/rikonavt-HQjfrvdTfak-unsplash.jpg,Stimuli/Experimental_stims/objects/jonathan-greenaway-Y4hGgeiFn3s-unsplash.jpg,0,NaN,NaN,NaN,chosen,2000,50,50
57383,0,144,2,2,1,gain5,no_gain5,I,C,41,12,body_parts,outdoor_scenes,Stimuli/Experimental_stims/body_parts/lucaxx-freire-CacZwMexYdk-unsplash.jpg,Stimuli/Experimental_stims/outdoor_scenes/aleksandra-boguslawska-MS7KD9Ti7FQ-unsplash.jpg,0,NaN,NaN,NaN,chosen,1000,50,50
57383,0,145,2,2,0,no_gain4,gain5,A,I,48,13,objects,outdoor_scenes,Stimuli/Experimental_stims/objects/alexander-andrews-JYGnB9gTCls-unsplash.jpg,Stimuli/Experimental_stims/outdoor_scenes/ashim-d-silva-S2Q5mdOrrVc-unsplash.jpg,0,NaN,NaN,NaN,unchosen,1500,50,50
57383,0,146,2,2,1,gain1,no_gain2,L,E,42,53,body_parts,objects,Stimuli/Experimental_stims/body_parts/lucrezia-carnelos-kn6QrWtnAtY-unsplash.jpg,Stimuli/Experimental_stims/objects/insung-yoon-w2JtIQQXoRU-unsplash.jpg,0,NaN,NaN,NaN,chosen,1000,50,50
57383,0,147,2,2,0,no_gain4,gain1,A,L,48,30,objects,faces,Stimuli/Experimental_stims/objects/alexander-andrews-JYGnB9gTCls-unsplash.jpg,Stimuli/Experimental_stims/faces/good-faces-xmSWVeGEnJw-unsplash.jpg,0,NaN,NaN,NaN,unchosen,1000,50,50
57383,0,148,2,2,0,no_gain4,gain6,A,G,48,22,objects,outdoor_scenes,Stimuli/Experimental_stims/objects/alexander-andrews-JYGnB9gTCls-unsplash.jpg,Stimuli/Experimental_stims/outdoor_scenes/stephen-leonardi-gyIRjKPXupE-unsplash.jpg,0,NaN,NaN,NaN,unchosen,1000,50,50
57383,0,149,3,3,0,no_gain6,gain3,K,D,54,29,objects,faces,Stimuli/Experimental_stims/objects/jess-bailey-nOeVi8DsN8U-unsplash.jpg,Stimuli/Experimental_stims/faces/freddy-kearney-o-ioeoATbIM-unsplash.jpg,0,NaN,NaN,NaN,unchosen,1000,50,50
57383,0,150,3,3,0,no_gain3,gain5,F,I,45,13,body_parts,outdoor_scenes,Stimuli/Experimental_stims/body_parts/sincerely-media-7TBFwUQA6Xk-unsplash.jpg,Stimuli/Experimental_stims/outdoor_scenes/ashim-d-silva-S2Q5mdOrrVc-unsplash.jpg,0,NaN,NaN,NaN,unchosen,3000,50,50
57383,0,151,3,3,0,no_gain2,gain3,E,D,39,29,body_parts,faces,Stimuli/Experimental_stims/body_parts/jonathan-borba-hTwH8QFkPMs-unsplash.jpg,Stimuli/Experimental_stims/faces/freddy-kearney-o-ioeoATbIM-unsplash.jpg,0,NaN,NaN,NaN,unchosen,2000,50,50
57383,0,152,3,3,0,no_gain1,gain2,J,H,57,23,objects,outdoor_scenes,Stimuli/Experimental_stims/objects/kuiye-chen-NuOGFo4PudE-unsplash.jpg,Stimuli/Experimental_stims/outdoor_scenes/yuriy-bogdanov-W51VK3Obcj0-unsplash.jpg,0,NaN,NaN,NaN,unchosen,1000,50,50
57383,0,153,3,3,0,no_gain5,gain4,C,B,12,14,outdoor_scenes,outdoor_scenes,Stimuli/Experimental_stims/outdoor_scenes/aleksandra-boguslawska-MS7KD9Ti7FQ-unsplash.jpg,Stimuli/Experimental_stims/outdoor_scenes/bruno-van-der-kraan-qez8mNJ3ilU-unsplash.jpg,0,NaN,NaN,NaN,chosen,2000,50,50
57383,0,154,3,3,0,no_gain4,gain1,A,L,16,42,outdoor_scenes,body_parts,Stimuli/Experimental_stims/outdoor_scenes/jarrett-kow-1ZOyYPOBn7I-unsplash.jpg,Stimuli/Experimental_stims/body_parts/lucrezia-carnelos-kn6QrWtnAtY-unsplash.jpg,0,NaN,NaN,NaN,chosen,1500,50,50
57383,0,155,3,3,1,gain4,no_gain4,B,A,33,48,faces,objects,Stimuli/Experimental_stims/faces/leilani-angel-K84vnnzxmTQ-unsplash.jpg,Stimuli/Experimental_stims/objects/alexander-andrews-JYGnB9gTCls-unsplash.jpg,0,NaN,NaN,NaN,unchosen,2000,50,50
57383,0,156,3,3,0,no_gain6,gain3,K,D,36,56,body_parts,objects,Stimuli/Experimental_stims/body_parts/callum-skelton-3KLMq7y46nA-unsplash.jpg,Stimuli/Experimental_stims/objects/jonathan-greenaway-Y4hGgeiFn3s-unsplash.jpg,0,NaN,NaN,NaN,chosen,1500,50,50
57383,0,157,3,3,0,no_gain2,gain4,E,B,39,33,body_parts,faces,Stimuli/Experimental_stims/body_parts/jonathan-borba-hTwH8QFkPMs-unsplash.jpg,Stimuli/Experimental_stims/faces/leilani-angel-K84vnnzxmTQ-unsplash.jpg,0,NaN,NaN,NaN,unchosen,3000,50,50
57383,0,158,3,3,1,gain4,no_gain6,B,K,14,36,outdoor_scenes,body_parts,Stimuli/Experimental_stims/outdoor_scenes/bruno-van-der-kraan-qez8mNJ3ilU-unsplash.jpg,Stimuli/Experimental_stims/body_parts/callum-skelton-3KLMq7y46nA-unsplash.jpg,0,NaN,NaN,NaN,chosen,3000,50,50
57383,0,159,3,3,1,gain1,no_gain6,L,K,30,54,faces,objects,Stimuli/Experimental_stims/faces/good-faces-xmSWVeGEnJw-unsplash.jpg,Stimuli/Experimental_stims/objects/jess-bailey-nOeVi8DsN8U-unsplash.jpg,0,NaN,NaN,NaN,unchosen,1500,50,50
57383,0,160,3,3,1,gain5,no_gain4,I,A,13,48,outdoor_scenes,objects,Stimuli/Experimental_stims/outdoor_scenes/ashim-d-silva-S2Q5mdOrrVc-unsplash.jpg,Stimuli/Experimental_stims/objects/alexander-andrews-JYGnB9gTCls-unsplash.jpg,0,NaN,NaN,NaN,unchosen,1000,50,50
57383,0,161,3,3,0,no_gain1,gain5,J,I,57,13,objects,outdoor_scenes,Stimuli/Experimental_stims/objects/kuiye-chen-NuOGFo4PudE-unsplash.jpg,Stimuli/Experimental_stims/outdoor_scenes/ashim-d-silva-S2Q5mdOrrVc-unsplash.jpg,0,NaN,NaN,NaN,unchosen,1500,50,50
57383,0,162,3,3,0,no_gain5,gain5,C,I,12,41,outdoor_scenes,body_parts,Stimuli/Experimental_stims/outdoor_scenes/aleksandra-boguslawska-MS7KD9Ti7FQ-unsplash.jpg,Stimuli/Experimental_stims/body_parts/lucaxx-freire-CacZwMexYdk-unsplash.jpg,0,NaN,NaN,NaN,chosen,1000,50,50
57383,0,163,3,3,0,no_gain1,gain3,J,D,57,29,objects,faces,Stimuli/Experimental_stims/objects/kuiye-chen-NuOGFo4PudE-unsplash.jpg,Stimuli/Experimental_stims/faces/freddy-kearney-o-ioeoATbIM-unsplash.jpg,0,NaN,NaN,NaN,unchosen,1500,50,50
57383,0,164,3,3,1,gain2,no_gain6,H,K,23,54,outdoor_scenes,objects,Stimuli/Experimental_stims/outdoor_scenes/yuriy-bogdanov-W51VK3Obcj0-unsplash.jpg,Stimuli/Experimental_stims/objects/jess-bailey-nOeVi8DsN8U-unsplash.jpg,0,NaN,NaN,NaN,unchosen,1000,50,50
57383,0,165,3,3,0,no_gain5,gain6,C,G,40,22,body_parts,outdoor_scenes,Stimuli/Experimental_stims/body_parts/klara-kulikova-TcUfF24fUMY-unsplash.jpg,Stimuli/Experimental_stims/outdoor_scenes/stephen-leonardi-gyIRjKPXupE-unsplash.jpg,0,NaN,NaN,NaN,unchosen,2000,50,50
57383,0,166,3,3,0,no_gain2,gain2,E,H,39,23,body_parts,outdoor_scenes,Stimuli/Experimental_stims/body_parts/jonathan-borba-hTwH8QFkPMs-unsplash.jpg,Stimuli/Experimental_stims/outdoor_scenes/yuriy-bogdanov-W51VK3Obcj0-unsplash.jpg,0,NaN,NaN,NaN,unchosen,1000,50,50
57383,0,167,3,3,1,gain2,no_gain4,H,A,34,16,faces,outdoor_scenes,Stimuli/Experimental_stims/faces/olena-sergienko-0TSd6uCKTKc-unsplash.jpg,Stimuli/Experimental_stims/outdoor_scenes/jarrett-kow-1ZOyYPOBn7I-unsplash.jpg,0,NaN,NaN,NaN,chosen,1500,50,50
57383,0,168,3,3,0,no_gain3,gain3,F,D,45,29,body_parts,faces,Stimuli/Experimental_stims/body_parts/sincerely-media-7TBFwUQA6Xk-unsplash.jpg,Stimuli/Experimental_stims/faces/freddy-kearney-o-ioeoATbIM-unsplash.jpg,0,NaN,NaN,NaN,unchosen,1500,50,50
57383,0,169,3,3,1,gain2,no_gain3,H,F,23,45,outdoor_scenes,body_parts,Stimuli/Experimental_stims/outdoor_scenes/yuriy-bogdanov-W51VK3Obcj0-unsplash.jpg,Stimuli/Experimental_stims/body_parts/sincerely-media-7TBFwUQA6Xk-unsplash.jpg,0,NaN,NaN,NaN,unchosen,3000,50,50
57383,0,170,3,3,0,no_gain2,gain3,E,D,53,56,objects,objects,Stimuli/Experimental_stims/objects/insung-yoon-w2JtIQQXoRU-unsplash.jpg,Stimuli/Experimental_stims/objects/jonathan-greenaway-Y4hGgeiFn3s-unsplash.jpg,0,NaN,NaN,NaN,chosen,2000,50,50
57383,0,171,3,3,1,gain5,no_gain6,I,K,13,54,outdoor_scenes,objects,Stimuli/Experimental_stims/outdoor_scenes/ashim-d-silva-S2Q5mdOrrVc-unsplash.jpg,Stimuli/Experimental_stims/objects/jess-bailey-nOeVi8DsN8U-unsplash.jpg,0,NaN,NaN,NaN,unchosen,1500,50,50
57383,0,172,3,3,0,no_gain1,gain2,J,H,25,34,faces,faces,Stimuli/Experimental_stims/faces/aiony-haust-jmATI5Q_YgY-unsplash.jpg,Stimuli/Experimental_stims/faces/olena-sergienko-0TSd6uCKTKc-unsplash.jpg,0,NaN,NaN,NaN,chosen,1000,50,50
57383,0,173,3,3,1,gain4,no_gain4,B,A,14,16,outdoor_scenes,outdoor_scenes,Stimuli/Experimental_stims/outdoor_scenes/bruno-van-der-kraan-qez8mNJ3ilU-unsplash.jpg,Stimuli/Experimental_stims/outdoor_scenes/jarrett-kow-1ZOyYPOBn7I-unsplash.jpg,0,NaN,NaN,NaN,chosen,3500,50,50
57383,0,174,3,3,1,gain4,no_gain1,B,J,14,25,outdoor_scenes,faces,Stimuli/Experimental_stims/outdoor_scenes/bruno-van-der-kraan-qez8mNJ3ilU-unsplash.jpg,Stimuli/Experimental_stims/faces/aiony-haust-jmATI5Q_YgY-unsplash.jpg,0,NaN,NaN,NaN,chosen,1000,50,50
57383,0,175,3,3,0,no_gain2,gain1,E,L,39,30,body_parts,faces,Stimuli/Experimental_stims/body_parts/jonathan-borba-hTwH8QFkPMs-unsplash.jpg,Stimuli/Experimental_stims/faces/good-faces-xmSWVeGEnJw-unsplash.jpg,0,NaN,NaN,NaN,unchosen,2000,50,50
57383,0,176,3,3,1,gain1,no_gain1,L,J,42,25,body_parts,faces,Stimuli/Experimental_stims/body_parts/lucrezia-carnelos-kn6QrWtnAtY-unsplash.jpg,Stimuli/Experimental_stims/faces/aiony-haust-jmATI5Q_YgY-unsplash.jpg,0,NaN,NaN,NaN,chosen,1000,50,50
57383,0,177,3,3,1,gain1,no_gain2,L,E,42,53,body_parts,objects,Stimuli/Experimental_stims/body_parts/lucrezia-carnelos-kn6QrWtnAtY-unsplash.jpg,Stimuli/Experimental_stims/objects/insung-yoon-w2JtIQQXoRU-unsplash.jpg,0,NaN,NaN,NaN,chosen,1000,50,50
57383,0,178,3,3,1,gain4,no_gain3,B,F,14,35,outdoor_scenes,faces,Stimuli/Experimental_stims/outdoor_scenes/bruno-van-der-kraan-qez8mNJ3ilU-unsplash.jpg,Stimuli/Experimental_stims/faces/rikonavt-HQjfrvdTfak-unsplash.jpg,0,NaN,NaN,NaN,chosen,2000,50,50
57383,0,179,3,3,0,no_gain1,gain6,J,G,25,50,faces,objects,Stimuli/Experimental_stims/faces/aiony-haust-jmATI5Q_YgY-unsplash.jpg,Stimuli/Experimental_stims/objects/andrew-petrov-TVJqDat4MAw-unsplash.jpg,0,NaN,NaN,NaN,chosen,3000,50,50
57383,0,180,3,3,0,no_gain3,gain4,F,B,45,33,body_parts,faces,Stimuli/Experimental_stims/body_parts/sincerely-media-7TBFwUQA6Xk-unsplash.jpg,Stimuli/Experimental_stims/faces/leilani-angel-K84vnnzxmTQ-unsplash.jpg,0,NaN,NaN,NaN,unchosen,1000,50,50
57383,0,181,3,3,1,gain4,no_gain5,B,C,33,40,faces,body_parts,Stimuli/Experimental_stims/faces/leilani-angel-K84vnnzxmTQ-unsplash.jpg,Stimuli/Experimental_stims/body_parts/klara-kulikova-TcUfF24fUMY-unsplash.jpg,0,NaN,NaN,NaN,unchosen,1000,50,50
57383,0,182,3,3,1,gain6,no_gain6,G,K,50,36,objects,body_parts,Stimuli/Experimental_stims/objects/andrew-petrov-TVJqDat4MAw-unsplash.jpg,Stimuli/Experimental_stims/body_parts/callum-skelton-3KLMq7y46nA-unsplash.jpg,0,NaN,NaN,NaN,chosen,1000,50,50
57383,0,183,3,3,1,gain5,no_gain6,I,K,41,36,body_parts,body_parts,Stimuli/Experimental_stims/body_parts/lucaxx-freire-CacZwMexYdk-unsplash.jpg,Stimuli/Experimental_stims/body_parts/callum-skelton-3KLMq7y46nA-unsplash.jpg,0,NaN,NaN,NaN,chosen,3500,50,50
57383,0,184,3,3,1,gain6,no_gain5,G,C,50,12,objects,outdoor_scenes,Stimuli/Experimental_stims/objects/andrew-petrov-TVJqDat4MAw-unsplash.jpg,Stimuli/Experimental_stims/outdoor_scenes/aleksandra-boguslawska-MS7KD9Ti7FQ-unsplash.jpg,0,NaN,NaN,NaN,chosen,1500,50,50
57383,0,185,3,3,0,no_gain5,gain1,C,L,12,42,outdoor_scenes,body_parts,Stimuli/Experimental_stims/outdoor_scenes/aleksandra-boguslawska-MS7KD9Ti7FQ-unsplash.jpg,Stimuli/Experimental_stims/body_parts/lucrezia-carnelos-kn6QrWtnAtY-unsplash.jpg,0,NaN,NaN,NaN,chosen,1500,50,50
57383,0,186,3,3,1,gain6,no_gain1,G,J,22,57,outdoor_scenes,objects,Stimuli/Experimental_stims/outdoor_scenes/stephen-leonardi-gyIRjKPXupE-unsplash.jpg,Stimuli/Experimental_stims/objects/kuiye-chen-NuOGFo4PudE-unsplash.jpg,0,NaN,NaN,NaN,unchosen,1500,50,50
57383,0,187,3,3,1,gain4,no_gain2,B,E,14,53,outdoor_scenes,objects,Stimuli/Experimental_stims/outdoor_scenes/bruno-van-der-kraan-qez8mNJ3ilU-unsplash.jpg,Stimuli/Experimental_stims/objects/insung-yoon-w2JtIQQXoRU-unsplash.jpg,0,NaN,NaN,NaN,chosen,1000,50,50
57383,0,188,3,3,0,no_gain1,gain5,J,I,25,41,faces,body_parts,Stimuli/Experimental_stims/faces/aiony-haust-jmATI5Q_YgY-unsplash.jpg,Stimuli/Experimental_stims/body_parts/lucaxx-freire-CacZwMexYdk-unsplash.jpg,0,NaN,NaN,NaN,chosen,3000,50,50
57383,0,189,3,3,0,no_gain3,gain6,F,G,35,50,faces,objects,Stimuli/Experimental_stims/faces/rikonavt-HQjfrvdTfak-unsplash.jpg,Stimuli/Experimental_stims/objects/andrew-petrov-TVJqDat4MAw-unsplash.jpg,0,NaN,NaN,NaN,chosen,3000,50,50
57383,0,190,3,3,1,gain1,no_gain6,L,K,42,36,body_parts,body_parts,Stimuli/Experimental_stims/body_parts/lucrezia-carnelos-kn6QrWtnAtY-unsplash.jpg,Stimuli/Experimental_stims/body_parts/callum-skelton-3KLMq7y46nA-unsplash.jpg,0,NaN,NaN,NaN,chosen,1000,50,50
57383,0,191,3,3,1,gain3,no_gain4,D,A,29,48,faces,objects,Stimuli/Experimental_stims/faces/freddy-kearney-o-ioeoATbIM-unsplash.jpg,Stimuli/Experimental_stims/objects/alexander-andrews-JYGnB9gTCls-unsplash.jpg,0,NaN,NaN,NaN,unchosen,1000,50,50
57383,0,192,3,3,1,gain5,no_gain4,I,A,41,16,body_parts,outdoor_scenes,Stimuli/Experimental_stims/body_parts/lucaxx-freire-CacZwMexYdk-unsplash.jpg,Stimuli/Experimental_stims/outdoor_scenes/jarrett-kow-1ZOyYPOBn7I-unsplash.jpg,0,NaN,NaN,NaN,chosen,2000,50,50
57383,0,193,3,3,1,gain1,no_gain5,L,C,30,40,faces,body_parts,Stimuli/Experimental_stims/faces/good-faces-xmSWVeGEnJw-unsplash.jpg,Stimuli/Experimental_stims/body_parts/klara-kulikova-TcUfF24fUMY-unsplash.jpg,0,NaN,NaN,NaN,unchosen,1500,50,50
57383,0,194,3,3,0,no_gain2,gain2,E,H,53,34,objects,faces,Stimuli/Experimental_stims/objects/insung-yoon-w2JtIQQXoRU-unsplash.jpg,Stimuli/Experimental_stims/faces/olena-sergienko-0TSd6uCKTKc-unsplash.jpg,0,NaN,NaN,NaN,chosen,2000,50,50
57383,0,195,3,3,1,gain5,no_gain2,I,E,41,53,body_parts,objects,Stimuli/Experimental_stims/body_parts/lucaxx-freire-CacZwMexYdk-unsplash.jpg,Stimuli/Experimental_stims/objects/insung-yoon-w2JtIQQXoRU-unsplash.jpg,0,NaN,NaN,NaN,chosen,1500,50,50
57383,0,196,3,3,1,gain4,no_gain6,B,K,33,54,faces,objects,Stimuli/Experimental_stims/faces/leilani-angel-K84vnnzxmTQ-unsplash.jpg,Stimuli/Experimental_stims/objects/jess-bailey-nOeVi8DsN8U-unsplash.jpg,0,NaN,NaN,NaN,unchosen,1500,50,50
57383,0,197,3,3,1,gain1,no_gain4,L,A,30,48,faces,objects,Stimuli/Experimental_stims/faces/good-faces-xmSWVeGEnJw-unsplash.jpg,Stimuli/Experimental_stims/objects/alexander-andrews-JYGnB9gTCls-unsplash.jpg,0,NaN,NaN,NaN,unchosen,3500,50,50
57383,0,198,3,3,1,gain5,no_gain3,I,F,41,35,body_parts,faces,Stimuli/Experimental_stims/body_parts/lucaxx-freire-CacZwMexYdk-unsplash.jpg,Stimuli/Experimental_stims/faces/rikonavt-HQjfrvdTfak-unsplash.jpg,0,NaN,NaN,NaN,chosen,1500,50,50
57383,0,199,3,3,0,no_gain1,gain4,J,B,57,33,objects,faces,Stimuli/Experimental_stims/objects/kuiye-chen-NuOGFo4PudE-unsplash.jpg,Stimuli/Experimental_stims/faces/leilani-angel-K84vnnzxmTQ-unsplash.jpg,0,NaN,NaN,NaN,unchosen,1000,50,50
57383,0,200,3,3,1,gain6,no_gain4,G,A,50,16,objects,outdoor_scenes,Stimuli/Experimental_stims/objects/andrew-petrov-TVJqDat4MAw-unsplash.jpg,Stimuli/Experimental_stims/outdoor_scenes/jarrett-kow-1ZOyYPOBn7I-unsplash.jpg,0,NaN,NaN,NaN,chosen,2000,50,50
57383,0,201,3,3,0,no_gain5,gain3,C,D,12,56,outdoor_scenes,objects,Stimuli/Experimental_stims/outdoor_scenes/aleksandra-boguslawska-MS7KD9Ti7FQ-unsplash.jpg,Stimuli/Experimental_stims/objects/jonathan-greenaway-Y4hGgeiFn3s-unsplash.jpg,0,NaN,NaN,NaN,chosen,1000,50,50
57383,0,202,3,3,0,no_gain3,gain1,F,L,35,42,faces,body_parts,Stimuli/Experimental_stims/faces/rikonavt-HQjfrvdTfak-unsplash.jpg,Stimuli/Experimental_stims/body_parts/lucrezia-carnelos-kn6QrWtnAtY-unsplash.jpg,0,NaN,NaN,NaN,chosen,1000,50,50
57383,0,203,3,3,0,no_gain3,gain6,F,G,45,22,body_parts,outdoor_scenes,Stimuli/Experimental_stims/body_parts/sincerely-media-7TBFwUQA6Xk-unsplash.jpg,Stimuli/Experimental_stims/outdoor_scenes/stephen-leonardi-gyIRjKPXupE-unsplash.jpg,0,NaN,NaN,NaN,unchosen,2000,50,50
57383,0,204,3,3,1,gain6,no_gain2,G,E,22,39,outdoor_scenes,body_parts,Stimuli/Experimental_stims/outdoor_scenes/stephen-leonardi-gyIRjKPXupE-unsplash.jpg,Stimuli/Experimental_stims/body_parts/jonathan-borba-hTwH8QFkPMs-unsplash.jpg,0,NaN,NaN,NaN,unchosen,1000,50,50
57383,0,205,3,3,0,no_gain2,gain5,E,I,39,13,body_parts,outdoor_scenes,Stimuli/Experimental_stims/body_parts/jonathan-borba-hTwH8QFkPMs-unsplash.jpg,Stimuli/Experimental_stims/outdoor_scenes/ashim-d-silva-S2Q5mdOrrVc-unsplash.jpg,0,NaN,NaN,NaN,unchosen,1000,50,50
57383,0,206,3,3,1,gain6,no_gain2,G,E,50,53,objects,objects,Stimuli/Experimental_stims/objects/andrew-petrov-TVJqDat4MAw-unsplash.jpg,Stimuli/Experimental_stims/objects/insung-yoon-w2JtIQQXoRU-unsplash.jpg,0,NaN,NaN,NaN,chosen,1500,50,50
57383,0,207,3,3,0,no_gain5,gain2,C,H,12,34,outdoor_scenes,faces,Stimuli/Experimental_stims/outdoor_scenes/aleksandra-boguslawska-MS7KD9Ti7FQ-unsplash.jpg,Stimuli/Experimental_stims/faces/olena-sergienko-0TSd6uCKTKc-unsplash.jpg,0,NaN,NaN,NaN,chosen,1000,50,50
57383,0,208,3,3,1,gain2,no_gain5,H,C,23,40,outdoor_scenes,body_parts,Stimuli/Experimental_stims/outdoor_scenes/yuriy-bogdanov-W51VK3Obcj0-unsplash.jpg,Stimuli/Experimental_stims/body_parts/klara-kulikova-TcUfF24fUMY-unsplash.jpg,0,NaN,NaN,NaN,unchosen,1500,50,50
57383,0,209,3,3,1,gain1,no_gain1,L,J,30,57,faces,objects,Stimuli/Experimental_stims/faces/good-faces-xmSWVeGEnJw-unsplash.jpg,Stimuli/Experimental_stims/objects/kuiye-chen-NuOGFo4PudE-unsplash.jpg,0,NaN,NaN,NaN,unchosen,1000,50,50
57383,0,210,3,3,0,no_gain5,gain5,C,I,40,13,body_parts,outdoor_scenes,Stimuli/Experimental_stims/body_parts/klara-kulikova-TcUfF24fUMY-unsplash.jpg,Stimuli/Experimental_stims/outdoor_scenes/ashim-d-silva-S2Q5mdOrrVc-unsplash.jpg,0,NaN,NaN,NaN,unchosen,3500,50,50
57383,0,211,3,3,1,gain6,no_gain4,G,A,22,48,outdoor_scenes,objects,Stimuli/Experimental_stims/outdoor_scenes/stephen-leonardi-gyIRjKPXupE-unsplash.jpg,Stimuli/Experimental_stims/objects/alexander-andrews-JYGnB9gTCls-unsplash.jpg,0,NaN,NaN,NaN,unchosen,1000,50,50
57383,0,212,3,3,0,no_gain3,gain1,F,L,45,30,body_parts,faces,Stimuli/Experimental_stims/body_parts/sincerely-media-7TBFwUQA6Xk-unsplash.jpg,Stimuli/Experimental_stims/faces/good-faces-xmSWVeGEnJw-unsplash.jpg,0,NaN,NaN,NaN,unchosen,2000,50,50
57383,0,213,3,3,0,no_gain4,gain2,A,H,48,23,objects,outdoor_scenes,Stimuli/Experimental_stims/objects/alexander-andrews-JYGnB9gTCls-unsplash.jpg,Stimuli/Experimental_stims/outdoor_scenes/yuriy-bogdanov-W51VK3Obcj0-unsplash.jpg,0,NaN,NaN,NaN,unchosen,3000,50,50
57383,0,214,3,3,1,gain6,no_gain6,G,K,22,54,outdoor_scenes,objects,Stimuli/Experimental_stims/outdoor_scenes/stephen-leonardi-gyIRjKPXupE-unsplash.jpg,Stimuli/Experimental_stims/objects/jess-bailey-nOeVi8DsN8U-unsplash.jpg,0,NaN,NaN,NaN,unchosen,1500,50,50
57383,0,215,3,3,1,gain3,no_gain5,D,C,29,40,faces,body_parts,Stimuli/Experimental_stims/faces/freddy-kearney-o-ioeoATbIM-unsplash.jpg,Stimuli/Experimental_stims/body_parts/klara-kulikova-TcUfF24fUMY-unsplash.jpg,0,NaN,NaN,NaN,unchosen,1000,50,50
57383,0,216,3,3,0,no_gain6,gain2,K,H,36,34,body_parts,faces,Stimuli/Experimental_stims/body_parts/callum-skelton-3KLMq7y46nA-unsplash.jpg,Stimuli/Experimental_stims/faces/olena-sergienko-0TSd6uCKTKc-unsplash.jpg,0,NaN,NaN,NaN,chosen,1000,50,50
57383,0,217,3,3,0,no_gain1,gain3,J,D,25,56,faces,objects,Stimuli/Experimental_stims/faces/aiony-haust-jmATI5Q_YgY-unsplash.jpg,Stimuli/Experimental_stims/objects/jonathan-greenaway-Y4hGgeiFn3s-unsplash.jpg,0,NaN,NaN,NaN,chosen,1000,50,50
57383,0,218,3,3,0,no_gain3,gain3,F,D,35,56,faces,objects,Stimuli/Experimental_stims/faces/rikonavt-HQjfrvdTfak-unsplash.jpg,Stimuli/Experimental_stims/objects/jonathan-greenaway-Y4hGgeiFn3s-unsplash.jpg,0,NaN,NaN,NaN,chosen,1500,50,50
57383,0,219,3,3,1,gain2,no_gain3,H,F,34,35,faces,faces,Stimuli/Experimental_stims/faces/olena-sergienko-0TSd6uCKTKc-unsplash.jpg,Stimuli/Experimental_stims/faces/rikonavt-HQjfrvdTfak-unsplash.jpg,0,NaN,NaN,NaN,chosen,1500,50,50
57383,0,220,3,3,0,no_gain4,gain3,A,D,16,56,outdoor_scenes,objects,Stimuli/Experimental_stims/outdoor_scenes/jarrett-kow-1ZOyYPOBn7I-unsplash.jpg,Stimuli/Experimental_stims/objects/jonathan-greenaway-Y4hGgeiFn3s-unsplash.jpg,0,NaN,NaN,NaN,chosen,1000,50,50
57383,0,221,4,4,0,no_gain4,gain2,A,H,48,23,objects,outdoor_scenes,Stimuli/Experimental_stims/objects/alexander-andrews-JYGnB9gTCls-unsplash.jpg,Stimuli/Experimental_stims/outdoor_scenes/yuriy-bogdanov-W51VK3Obcj0-unsplash.jpg,0,NaN,NaN,NaN,unchosen,1000,50,50
57383,0,222,4,4,0,no_gain6,gain1,K,L,36,42,body_parts,body_parts,Stimuli/Experimental_stims/body_parts/callum-skelton-3KLMq7y46nA-unsplash.jpg,Stimuli/Experimental_stims/body_parts/lucrezia-carnelos-kn6QrWtnAtY-unsplash.jpg,0,NaN,NaN,NaN,chosen,3000,50,50
57383,0,223,4,4,0,no_gain2,gain1,E,L,53,42,objects,body_parts,Stimuli/Experimental_stims/objects/insung-yoon-w2JtIQQXoRU-unsplash.jpg,Stimuli/Experimental_stims/body_parts/lucrezia-carnelos-kn6QrWtnAtY-unsplash.jpg,0,NaN,NaN,NaN,chosen,1000,50,50
57383,0,224,4,4,1,gain3,no_gain1,D,J,56,25,objects,faces,Stimuli/Experimental_stims/objects/jonathan-greenaway-Y4hGgeiFn3s-unsplash.jpg,Stimuli/Experimental_stims/faces/aiony-haust-jmATI5Q_YgY-unsplash.jpg,0,NaN,NaN,NaN,chosen,1000,50,50
57383,0,225,4,4,1,gain4,no_gain3,B,F,14,35,outdoor_scenes,faces,Stimuli/Experimental_stims/outdoor_scenes/bruno-van-der-kraan-qez8mNJ3ilU-unsplash.jpg,Stimuli/Experimental_stims/faces/rikonavt-HQjfrvdTfak-unsplash.jpg,0,NaN,NaN,NaN,chosen,3000,50,50
57383,0,226,4,4,1,gain3,no_gain3,D,F,29,45,faces,body_parts,Stimuli/Experimental_stims/faces/freddy-kearney-o-ioeoATbIM-unsplash.jpg,Stimuli/Experimental_stims/body_parts/sincerely-media-7TBFwUQA6Xk-unsplash.jpg,0,NaN,NaN,NaN,unchosen,3500,50,50
57383,0,227,4,4,0,no_gain5,gain3,C,D,12,56,outdoor_scenes,objects,Stimuli/Experimental_stims/outdoor_scenes/aleksandra-boguslawska-MS7KD9Ti7FQ-unsplash.jpg,Stimuli/Experimental_stims/objects/jonathan-greenaway-Y4hGgeiFn3s-unsplash.jpg,0,NaN,NaN,NaN,chosen,1500,50,50
57383,0,228,4,4,1,gain4,no_gain6,B,K,14,36,outdoor_scenes,body_parts,Stimuli/Experimental_stims/outdoor_scenes/bruno-van-der-kraan-qez8mNJ3ilU-unsplash.jpg,Stimuli/Experimental_stims/body_parts/callum-skelton-3KLMq7y46nA-unsplash.jpg,0,NaN,NaN,NaN,chosen,2000,50,50
57383,0,229,4,4,1,gain2,no_gain3,H,F,34,35,faces,faces,Stimuli/Experimental_stims/faces/olena-sergienko-0TSd6uCKTKc-unsplash.jpg,Stimuli/Experimental_stims/faces/rikonavt-HQjfrvdTfak-unsplash.jpg,0,NaN,NaN,NaN,chosen,1000,50,50
57383,0,230,4,4,0,no_gain6,gain4,K,B,54,33,objects,faces,Stimuli/Experimental_stims/objects/jess-bailey-nOeVi8DsN8U-unsplash.jpg,Stimuli/Experimental_stims/faces/leilani-angel-K84vnnzxmTQ-unsplash.jpg,0,NaN,NaN,NaN,unchosen,1000,50,50
57383,0,231,4,4,1,gain5,no_gain6,I,K,13,54,outdoor_scenes,objects,Stimuli/Experimental_stims/outdoor_scenes/ashim-d-silva-S2Q5mdOrrVc-unsplash.jpg,Stimuli/Experimental_stims/objects/jess-bailey-nOeVi8DsN8U-unsplash.jpg,0,NaN,NaN,NaN,unchosen,2000,50,50
57383,0,232,4,4,1,gain1,no_gain5,L,C,42,12,body_parts,outdoor_scenes,Stimuli/Experimental_stims/body_parts/lucrezia-carnelos-kn6QrWtnAtY-unsplash.jpg,Stimuli/Experimental_stims/outdoor_scenes/aleksandra-boguslawska-MS7KD9Ti7FQ-unsplash.jpg,0,NaN,NaN,NaN,chosen,1000,50,50
57383,0,233,4,4,1,gain5,no_gain3,I,F,13,45,outdoor_scenes,body_parts,Stimuli/Experimental_stims/outdoor_scenes/ashim-d-silva-S2Q5mdOrrVc-unsplash.jpg,Stimuli/Experimental_stims/body_parts/sincerely-media-7TBFwUQA6Xk-unsplash.jpg,0,NaN,NaN,NaN,unchosen,1000,50,50
57383,0,234,4,4,0,no_gain5,gain3,C,D,40,29,body_parts,faces,Stimuli/Experimental_stims/body_parts/klara-kulikova-TcUfF24fUMY-unsplash.jpg,Stimuli/Experimental_stims/faces/freddy-kearney-o-ioeoATbIM-unsplash.jpg,0,NaN,NaN,NaN,unchosen,3000,50,50
57383,0,235,4,4,1,gain4,no_gain1,B,J,14,25,outdoor_scenes,faces,Stimuli/Experimental_stims/outdoor_scenes/bruno-van-der-kraan-qez8mNJ3ilU-unsplash.jpg,Stimuli/Experimental_stims/faces/aiony-haust-jmATI5Q_YgY-unsplash.jpg,0,NaN,NaN,NaN,chosen,3000,50,50
57383,0,236,4,4,1,gain1,no_gain3,L,F,42,35,body_parts,faces,Stimuli/Experimental_stims/body_parts/lucrezia-carnelos-kn6QrWtnAtY-unsplash.jpg,Stimuli/Experimental_stims/faces/rikonavt-HQjfrvdTfak-unsplash.jpg,0,NaN,NaN,NaN,chosen,1000,50,50
57383,0,237,4,4,1,gain2,no_gain2,H,E,34,53,faces,objects,Stimuli/Experimental_stims/faces/olena-sergienko-0TSd6uCKTKc-unsplash.jpg,Stimuli/Experimental_stims/objects/insung-yoon-w2JtIQQXoRU-unsplash.jpg,0,NaN,NaN,NaN,chosen,1500,50,50
57383,0,238,4,4,0,no_gain5,gain6,C,G,12,50,outdoor_scenes,objects,Stimuli/Experimental_stims/outdoor_scenes/aleksandra-boguslawska-MS7KD9Ti7FQ-unsplash.jpg,Stimuli/Experimental_stims/objects/andrew-petrov-TVJqDat4MAw-unsplash.jpg,0,NaN,NaN,NaN,chosen,1000,50,50
57383,0,239,4,4,1,gain6,no_gain6,G,K,50,36,objects,body_parts,Stimuli/Experimental_stims/objects/andrew-petrov-TVJqDat4MAw-unsplash.jpg,Stimuli/Experimental_stims/body_parts/callum-skelton-3KLMq7y46nA-unsplash.jpg,0,NaN,NaN,NaN,chosen,1500,50,50
57383,0,240,4,4,0,no_gain1,gain5,J,I,25,41,faces,body_parts,Stimuli/Experimental_stims/faces/aiony-haust-jmATI5Q_YgY-unsplash.jpg,Stimuli/Experimental_stims/body_parts/lucaxx-freire-CacZwMexYdk-unsplash.jpg,0,NaN,NaN,NaN,chosen,1000,50,50
57383,0,241,4,4,0,no_gain4,gain1,A,L,48,30,objects,faces,Stimuli/Experimental_stims/objects/alexander-andrews-JYGnB9gTCls-unsplash.jpg,Stimuli/Experimental_stims/faces/good-faces-xmSWVeGEnJw-unsplash.jpg,0,NaN,NaN,NaN,unchosen,2000,50,50
57383,0,242,4,4,1,gain6,no_gain3,G,F,22,45,outdoor_scenes,body_parts,Stimuli/Experimental_stims/outdoor_scenes/stephen-leonardi-gyIRjKPXupE-unsplash.jpg,Stimuli/Experimental_stims/body_parts/sincerely-media-7TBFwUQA6Xk-unsplash.jpg,0,NaN,NaN,NaN,unchosen,1000,50,50
57383,0,243,4,4,1,gain3,no_gain3,D,F,56,35,objects,faces,Stimuli/Experimental_stims/objects/jonathan-greenaway-Y4hGgeiFn3s-unsplash.jpg,Stimuli/Experimental_stims/faces/rikonavt-HQjfrvdTfak-unsplash.jpg,0,NaN,NaN,NaN,chosen,1500,50,50
57383,0,244,4,4,0,no_gain3,gain2,F,H,45,23,body_parts,outdoor_scenes,Stimuli/Experimental_stims/body_parts/sincerely-media-7TBFwUQA6Xk-unsplash.jpg,Stimuli/Experimental_stims/outdoor_scenes/yuriy-bogdanov-W51VK3Obcj0-unsplash.jpg,0,NaN,NaN,NaN,unchosen,2000,50,50
57383,0,245,4,4,0,no_gain4,gain4,A,B,16,14,outdoor_scenes,outdoor_scenes,Stimuli/Experimental_stims/outdoor_scenes/jarrett-kow-1ZOyYPOBn7I-unsplash.jpg,Stimuli/Experimental_stims/outdoor_scenes/bruno-van-der-kraan-qez8mNJ3ilU-unsplash.jpg,0,NaN,NaN,NaN,chosen,1000,50,50
57383,0,246,4,4,1,gain2,no_gain6,H,K,23,54,outdoor_scenes,objects,Stimuli/Experimental_stims/outdoor_scenes/yuriy-bogdanov-W51VK3Obcj0-unsplash.jpg,Stimuli/Experimental_stims/objects/jess-bailey-nOeVi8DsN8U-unsplash.jpg,0,NaN,NaN,NaN,unchosen,3000,50,50
57383,0,247,4,4,0,no_gain5,gain2,C,H,12,34,outdoor_scenes,faces,Stimuli/Experimental_stims/outdoor_scenes/aleksandra-boguslawska-MS7KD9Ti7FQ-unsplash.jpg,Stimuli/Experimental_stims/faces/olena-sergienko-0TSd6uCKTKc-unsplash.jpg,0,NaN,NaN,NaN,chosen,1500,50,50
57383,0,248,4,4,1,gain2,no_gain5,H,C,23,40,outdoor_scenes,body_parts,Stimuli/Experimental_stims/outdoor_scenes/yuriy-bogdanov-W51VK3Obcj0-unsplash.jpg,Stimuli/Experimental_stims/body_parts/klara-kulikova-TcUfF24fUMY-unsplash.jpg,0,NaN,NaN,NaN,unchosen,1000,50,50
57383,0,249,4,4,1,gain4,no_gain2,B,E,33,39,faces,body_parts,Stimuli/Experimental_stims/faces/leilani-angel-K84vnnzxmTQ-unsplash.jpg,Stimuli/Experimental_stims/body_parts/jonathan-borba-hTwH8QFkPMs-unsplash.jpg,0,NaN,NaN,NaN,unchosen,1500,50,50
57383,0,250,4,4,1,gain2,no_gain2,H,E,23,39,outdoor_scenes,body_parts,Stimuli/Experimental_stims/outdoor_scenes/yuriy-bogdanov-W51VK3Obcj0-unsplash.jpg,Stimuli/Experimental_stims/body_parts/jonathan-borba-hTwH8QFkPMs-unsplash.jpg,0,NaN,NaN,NaN,unchosen,1500,50,50
57383,0,251,4,4,0,no_gain4,gain4,A,B,48,33,objects,faces,Stimuli/Experimental_stims/objects/alexander-andrews-JYGnB9gTCls-unsplash.jpg,Stimuli/Experimental_stims/faces/leilani-angel-K84vnnzxmTQ-unsplash.jpg,0,NaN,NaN,NaN,unchosen,3500,50,50
57383,0,252,4,4,0,no_gain1,gain5,J,I,57,13,objects,outdoor_scenes,Stimuli/Experimental_stims/objects/kuiye-chen-NuOGFo4PudE-unsplash.jpg,Stimuli/Experimental_stims/outdoor_scenes/ashim-d-silva-S2Q5mdOrrVc-unsplash.jpg,0,NaN,NaN,NaN,unchosen,1000,50,50
57383,0,253,4,4,1,gain6,no_gain3,G,F,50,35,objects,faces,Stimuli/Experimental_stims/objects/andrew-petrov-TVJqDat4MAw-unsplash.jpg,Stimuli/Experimental_stims/faces/rikonavt-HQjfrvdTfak-unsplash.jpg,0,NaN,NaN,NaN,chosen,2000,50,50
57383,0,254,4,4,1,gain4,no_gain3,B,F,33,45,faces,body_parts,Stimuli/Experimental_stims/faces/leilani-angel-K84vnnzxmTQ-unsplash.jpg,Stimuli/Experimental_stims/body_parts/sincerely-media-7TBFwUQA6Xk-unsplash.jpg,0,NaN,NaN,NaN,unchosen,1500,50,50
57383,0,255,4,4,0,no_gain4,gain3,A,D,16,56,outdoor_scenes,objects,Stimuli/Experimental_stims/outdoor_scenes/jarrett-kow-1ZOyYPOBn7I-unsplash.jpg,Stimuli/Experimental_stims/objects/jonathan-greenaway-Y4hGgeiFn3s-unsplash.jpg,0,NaN,NaN,NaN,chosen,3000,50,50
57383,0,256,4,4,0,no_gain5,gain6,C,G,40,22,body_parts,outdoor_scenes,Stimuli/Experimental_stims/body_parts/klara-kulikova-TcUfF24fUMY-unsplash.jpg,Stimuli/Experimental_stims/outdoor_scenes/stephen-leonardi-gyIRjKPXupE-unsplash.jpg,0,NaN,NaN,NaN,unchosen,1500,50,50
57383,0,257,4,4,1,gain3,no_gain1,D,J,29,57,faces,objects,Stimuli/Experimental_stims/faces/freddy-kearney-o-ioeoATbIM-unsplash.jpg,Stimuli/Experimental_stims/objects/kuiye-chen-NuOGFo4PudE-unsplash.jpg,0,NaN,NaN,NaN,unchosen,2000,50,50
57383,0,258,4,4,0,no_gain6,gain5,K,I,36,41,body_parts,body_parts,Stimuli/Experimental_stims/body_parts/callum-skelton-3KLMq7y46nA-unsplash.jpg,Stimuli/Experimental_stims/body_parts/lucaxx-freire-CacZwMexYdk-unsplash.jpg,0,NaN,NaN,NaN,chosen,2000,50,50
57383,0,259,4,4,0,no_gain2,gain3,E,D,53,56,objects,objects,Stimuli/Experimental_stims/objects/insung-yoon-w2JtIQQXoRU-unsplash.jpg,Stimuli/Experimental_stims/objects/jonathan-greenaway-Y4hGgeiFn3s-unsplash.jpg,0,NaN,NaN,NaN,chosen,1000,50,50
57383,0,260,4,4,1,gain6,no_gain6,G,K,22,54,outdoor_scenes,objects,Stimuli/Experimental_stims/outdoor_scenes/stephen-leonardi-gyIRjKPXupE-unsplash.jpg,Stimuli/Experimental_stims/objects/jess-bailey-nOeVi8DsN8U-unsplash.jpg,0,NaN,NaN,NaN,unchosen,3000,50,50
57383,0,261,4,4,0,no_gain4,gain5,A,I,48,13,objects,outdoor_scenes,Stimuli/Experimental_stims/objects/alexander-andrews-JYGnB9gTCls-unsplash.jpg,Stimuli/Experimental_stims/outdoor_scenes/ashim-d-silva-S2Q5mdOrrVc-unsplash.jpg,0,NaN,NaN,NaN,unchosen,1500,50,50
57383,0,262,4,4,0,no_gain1,gain6,J,G,57,22,objects,outdoor_scenes,Stimuli/Experimental_stims/objects/kuiye-chen-NuOGFo4PudE-unsplash.jpg,Stimuli/Experimental_stims/outdoor_scenes/stephen-leonardi-gyIRjKPXupE-unsplash.jpg,0,NaN,NaN,NaN,unchosen,1000,50,50
57383,0,263,4,4,0,no_gain3,gain1,F,L,45,30,body_parts,faces,Stimuli/Experimental_stims/body_parts/sincerely-media-7TBFwUQA6Xk-unsplash.jpg,Stimuli/Experimental_stims/faces/good-faces-xmSWVeGEnJw-unsplash.jpg,0,NaN,NaN,NaN,unchosen,1500,50,50
57383,0,264,4,4,1,gain5,no_gain5,I,C,41,12,body_parts,outdoor_scenes,Stimuli/Experimental_stims/body_parts/lucaxx-freire-CacZwMexYdk-unsplash.jpg,Stimuli/Experimental_stims/outdoor_scenes/aleksandra-boguslawska-MS7KD9Ti7FQ-unsplash.jpg,0,NaN,NaN,NaN,chosen,1500,50,50
57383,0,265,4,4,0,no_gain2,gain5,E,I,53,41,objects,body_parts,Stimuli/Experimental_stims/objects/insung-yoon-w2JtIQQXoRU-unsplash.jpg,Stimuli/Experimental_stims/body_parts/lucaxx-freire-CacZwMexYdk-unsplash.jpg,0,NaN,NaN,NaN,chosen,1000,50,50
57383,0,266,4,4,0,no_gain1,gain4,J,B,57,33,objects,faces,Stimuli/Experimental_stims/objects/kuiye-chen-NuOGFo4PudE-unsplash.jpg,Stimuli/Experimental_stims/faces/leilani-angel-K84vnnzxmTQ-unsplash.jpg,0,NaN,NaN,NaN,unchosen,1500,50,50
57383,0,267,4,4,1,gain1,no_gain4,L,A,42,16,body_parts,outdoor_scenes,Stimuli/Experimental_stims/body_parts/lucrezia-carnelos-kn6QrWtnAtY-unsplash.jpg,Stimuli/Experimental_stims/outdoor_scenes/jarrett-kow-1ZOyYPOBn7I-unsplash.jpg,0,NaN,NaN,NaN,chosen,1500,50,50
57383,0,268,4,4,1,gain6,no_gain2,G,E,50,53,objects,objects,Stimuli/Experimental_stims/objects/andrew-petrov-TVJqDat4MAw-unsplash.jpg,Stimuli/Experimental_stims/objects/insung-yoon-w2JtIQQXoRU-unsplash.jpg,0,NaN,NaN,NaN,chosen,1000,50,50
57383,0,269,4,4,1,gain1,no_gain5,L,C,30,40,faces,body_parts,Stimuli/Experimental_stims/faces/good-faces-xmSWVeGEnJw-unsplash.jpg,Stimuli/Experimental_stims/body_parts/klara-kulikova-TcUfF24fUMY-unsplash.jpg,0,NaN,NaN,NaN,unchosen,1000,50,50
57383,0,270,4,4,1,gain4,no_gain2,B,E,14,53,outdoor_scenes,objects,Stimuli/Experimental_stims/outdoor_scenes/bruno-van-der-kraan-qez8mNJ3ilU-unsplash.jpg,Stimuli/Experimental_stims/objects/insung-yoon-w2JtIQQXoRU-unsplash.jpg,0,NaN,NaN,NaN,chosen,2000,50,50
57383,0,271,4,4,0,no_gain1,gain2,J,H,57,23,objects,outdoor_scenes,Stimuli/Experimental_stims/objects/kuiye-chen-NuOGFo4PudE-unsplash.jpg,Stimuli/Experimental_stims/outdoor_scenes/yuriy-bogdanov-W51VK3Obcj0-unsplash.jpg,0,NaN,NaN,NaN,unchosen,1000,50,50
57383,0,272,4,4,0,no_gain1,gain1,J,L,57,30,objects,faces,Stimuli/Experimental_stims/objects/kuiye-chen-NuOGFo4PudE-unsplash.jpg,Stimuli/Experimental_stims/faces/good-faces-xmSWVeGEnJw-unsplash.jpg,0,NaN,NaN,NaN,unchosen,1500,50,50
57383,0,273,4,4,1,gain2,no_gain6,H,K,34,36,faces,body_parts,Stimuli/Experimental_stims/faces/olena-sergienko-0TSd6uCKTKc-unsplash.jpg,Stimuli/Experimental_stims/body_parts/callum-skelton-3KLMq7y46nA-unsplash.jpg,0,NaN,NaN,NaN,chosen,1500,50,50
57383,0,274,4,4,1,gain4,no_gain5,B,C,33,40,faces,body_parts,Stimuli/Experimental_stims/faces/leilani-angel-K84vnnzxmTQ-unsplash.jpg,Stimuli/Experimental_stims/body_parts/klara-kulikova-TcUfF24fUMY-unsplash.jpg,0,NaN,NaN,NaN,unchosen,1000,50,50
57383,0,275,4,4,1,gain1,no_gain6,L,K,30,54,faces,objects,Stimuli/Experimental_stims/faces/good-faces-xmSWVeGEnJw-unsplash.jpg,Stimuli/Experimental_stims/objects/jess-bailey-nOeVi8DsN8U-unsplash.jpg,0,NaN,NaN,NaN,unchosen,3000,50,50
57383,0,276,4,4,1,gain5,no_gain5,I,C,13,40,outdoor_scenes,body_parts,Stimuli/Experimental_stims/outdoor_scenes/ashim-d-silva-S2Q5mdOrrVc-unsplash.jpg,Stimuli/Experimental_stims/body_parts/klara-kulikova-TcUfF24fUMY-unsplash.jpg,0,NaN,NaN,NaN,unchosen,1500,50,50
57383,0,277,4,4,0,no_gain2,gain6,E,G,39,22,body_parts,outdoor_scenes,Stimuli/Experimental_stims/body_parts/jonathan-borba-hTwH8QFkPMs-unsplash.jpg,Stimuli/Experimental_stims/outdoor_scenes/stephen-leonardi-gyIRjKPXupE-unsplash.jpg,0,NaN,NaN,NaN,unchosen,2000,50,50
57383,0,278,4,4,1,gain1,no_gain2,L,E,30,39,faces,body_parts,Stimuli/Experimental_stims/faces/good-faces-xmSWVeGEnJw-unsplash.jpg,Stimuli/Experimental_stims/body_parts/jonathan-borba-hTwH8QFkPMs-unsplash.jpg,0,NaN,NaN,NaN,unchosen,2000,50,50
57383,0,279,4,4,0,no_gain4,gain2,A,H,16,34,outdoor_scenes,faces,Stimuli/Experimental_stims/outdoor_scenes/jarrett-kow-1ZOyYPOBn7I-unsplash.jpg,Stimuli/Experimental_stims/faces/olena-sergienko-0TSd6uCKTKc-unsplash.jpg,0,NaN,NaN,NaN,chosen,2000,50,50
57383,0,280,4,4,0,no_gain5,gain4,C,B,12,14,outdoor_scenes,outdoor_scenes,Stimuli/Experimental_stims/outdoor_scenes/aleksandra-boguslawska-MS7KD9Ti7FQ-unsplash.jpg,Stimuli/Experimental_stims/outdoor_scenes/bruno-van-der-kraan-qez8mNJ3ilU-unsplash.jpg,0,NaN,NaN,NaN,chosen,3500,50,50
57383,0,281,4,4,0,no_gain6,gain3,K,D,54,29,objects,faces,Stimuli/Experimental_stims/objects/jess-bailey-nOeVi8DsN8U-unsplash.jpg,Stimuli/Experimental_stims/faces/freddy-kearney-o-ioeoATbIM-unsplash.jpg,0,NaN,NaN,NaN,unchosen,1000,50,50
57383,0,282,4,4,0,no_gain1,gain2,J,H,25,34,faces,faces,Stimuli/Experimental_stims/faces/aiony-haust-jmATI5Q_YgY-unsplash.jpg,Stimuli/Experimental_stims/faces/olena-sergienko-0TSd6uCKTKc-unsplash.jpg,0,NaN,NaN,NaN,chosen,1000,50,50
57383,0,283,4,4,0,no_gain1,gain6,J,G,25,50,faces,objects,Stimuli/Experimental_stims/faces/aiony-haust-jmATI5Q_YgY-unsplash.jpg,Stimuli/Experimental_stims/objects/andrew-petrov-TVJqDat4MAw-unsplash.jpg,0,NaN,NaN,NaN,chosen,1500,50,50
57383,0,284,4,4,0,no_gain1,gain1,J,L,25,42,faces,body_parts,Stimuli/Experimental_stims/faces/aiony-haust-jmATI5Q_YgY-unsplash.jpg,Stimuli/Experimental_stims/body_parts/lucrezia-carnelos-kn6QrWtnAtY-unsplash.jpg,0,NaN,NaN,NaN,chosen,1000,50,50
57383,0,285,4,4,1,gain6,no_gain4,G,A,22,48,outdoor_scenes,objects,Stimuli/Experimental_stims/outdoor_scenes/stephen-leonardi-gyIRjKPXupE-unsplash.jpg,Stimuli/Experimental_stims/objects/alexander-andrews-JYGnB9gTCls-unsplash.jpg,0,NaN,NaN,NaN,unchosen,1000,50,50
57383,0,286,4,4,0,no_gain2,gain3,E,D,39,29,body_parts,faces,Stimuli/Experimental_stims/body_parts/jonathan-borba-hTwH8QFkPMs-unsplash.jpg,Stimuli/Experimental_stims/faces/freddy-kearney-o-ioeoATbIM-unsplash.jpg,0,NaN,NaN,NaN,unchosen,1500,50,50
57383,0,287,4,4,0,no_gain2,gain5,E,I,39,13,body_parts,outdoor_scenes,Stimuli/Experimental_stims/body_parts/jonathan-borba-hTwH8QFkPMs-unsplash.jpg,Stimuli/Experimental_stims/outdoor_scenes/ashim-d-silva-S2Q5mdOrrVc-unsplash.jpg,0,NaN,NaN,NaN,unchosen,1000,50,50
57383,0,288,4,4,1,gain5,no_gain3,I,F,41,35,body_parts,faces,Stimuli/Experimental_stims/body_parts/lucaxx-freire-CacZwMexYdk-unsplash.jpg,Stimuli/Experimental_stims/faces/rikonavt-HQjfrvdTfak-unsplash.jpg,0,NaN,NaN,NaN,chosen,3500,50,50
57383,0,289,4,4,1,gain5,no_gain4,I,A,41,16,body_parts,outdoor_scenes,Stimuli/Experimental_stims/body_parts/lucaxx-freire-CacZwMexYdk-unsplash.jpg,Stimuli/Experimental_stims/outdoor_scenes/jarrett-kow-1ZOyYPOBn7I-unsplash.jpg,0,NaN,NaN,NaN,chosen,2000,50,50
57383,0,290,4,4,0,no_gain4,gain6,A,G,16,50,outdoor_scenes,objects,Stimuli/Experimental_stims/outdoor_scenes/jarrett-kow-1ZOyYPOBn7I-unsplash.jpg,Stimuli/Experimental_stims/objects/andrew-petrov-TVJqDat4MAw-unsplash.jpg,0,NaN,NaN,NaN,chosen,1500,50,50
57383,0,291,4,4,0,no_gain6,gain3,K,D,36,56,body_parts,objects,Stimuli/Experimental_stims/body_parts/callum-skelton-3KLMq7y46nA-unsplash.jpg,Stimuli/Experimental_stims/objects/jonathan-greenaway-Y4hGgeiFn3s-unsplash.jpg,0,NaN,NaN,NaN,chosen,1000,50,50
57383,0,292,4,4,1,gain3,no_gain4,D,A,29,48,faces,objects,Stimuli/Experimental_stims/faces/freddy-kearney-o-ioeoATbIM-unsplash.jpg,Stimuli/Experimental_stims/objects/alexander-andrews-JYGnB9gTCls-unsplash.jpg,0,NaN,NaN,NaN,unchosen,1000,50,50