PID,practice,trial,block,run,gain_left,left_item_id,right_item_id,left_pair_id,right_pair_id,left_stimulus,right_stimulus,left_category,right_category,left_path,right_path,no_response,left_chosen,rt,higher_outcome_chosen,choice_type,iti
30959,1,1,0,0,NaN,NaN,NaN,NA,NA,NA,NA,NA,NA,Stimuli/Practice_stims/Final_decisions/debby-hudson-FmCSSSGge-0-unsplash.jpg,Stimuli/Practice_stims/Final_decisions/yassine-khalfalli-adsQ9d_Cx0c-unsplash.jpg,0,NaN,NaN,NaN,NaN,3000
30959,1,2,0,0,NaN,NaN,NaN,NA,NA,NA,NA,NA,NA,Stimuli/Practice_stims/Final_decisions/florian-wehde-iVW7mZPwd4g-unsplash.jpg,Stimuli/Practice_stims/Final_decisions/patrick-perkins-3wylDrjxH-E-unsplash.jpg,0,NaN,NaN,NaN,NaN,1500
30959,1,3,0,0,NaN,NaN,NaN,NA,NA,NA,NA,NA,NA,Stimuli/Practice_stims/Final_decisions/debby-hudson-FmCSSSGge-0-unsplash.jpg,Stimuli/Practice_stims/Final_decisions/florian-wehde-iVW7mZPwd4g-unsplash.jpg,0,NaN,NaN,NaN,NaN,2000
30959,1,4,0,0,NaN,NaN,NaN,NA,NA,NA,NA,NA,NA,Stimuli/Practice_stims/Final_decisions/yassine-khalfalli-adsQ9d_Cx0c-unsplash.jpg,Stimuli/Practice_stims/Final_decisions/debby-hudson-FmCSSSGge-0-unsplash.jpg,0,NaN,NaN,NaN,NaN,1000
30959,0,5,1,1,1,gain1,no_gain2,G,A,22,55,outdoor_scenes,objects,Stimuli/Experimental_stims/outdoor_scenes/stephen-leonardi-gyIRjKPXupE-unsplash.jpg,Stimuli/Experimental_stims/objects/jiangxulei1990-eIzzzwtkBjU-unsplash.jpg,0,NaN,NaN,NaN,unchosen,1000,50,50
30959,0,6,1,1,1,gain3,no_gain1,D,J,33,51,faces,objects,Stimuli/Experimental_stims/faces/leilani-angel-K84vnnzxmTQ-unsplash.jpg,Stimuli/Experimental_stims/objects/art-lasovsky-8XddFc6NkBY-unsplash.jpg,0,NaN,NaN,NaN,unchosen,3000,50,50
30959,0,7,1,1,0,no_gain3,gain3,K,D,59,33,objects,faces,Stimuli/Experimental_stims/objects/ronaldo-arthur-vidal-Cdz_lvnl37k-unsplash.jpg,Stimuli/Experimental_stims/faces/leilani-angel-K84vnnzxmTQ-unsplash.jpg,0,NaN,NaN,NaN,unchosen,1500,50,50
30959,0,8,1,1,1,gain2,no_gain6,I,F,38,25,body_parts,faces,Stimuli/Experimental_stims/body_parts/engin-akyurt-x_3gyC42btc-unsplash.jpg,Stimuli/Experimental_stims/faces/aiony-haust-jmATI5Q_YgY-unsplash.jpg,0,NaN,NaN,NaN,chosen,1000,50,50
30959,0,9,1,1,0,no_gain5,gain3,C,D,15,56,outdoor_scenes,objects,Stimuli/Experimental_stims/outdoor_scenes/henry-be-NLF6hTe4PAg-unsplash.jpg,Stimuli/Experimental_stims/objects/jonathan-greenaway-Y4hGgeiFn3s-unsplash.jpg,0,NaN,NaN,NaN,chosen,3000,50,50
30959,0,10,1,1,0,no_gain1,gain5,J,H,51,23,objects,outdoor_scenes,Stimuli/Experimental_stims/objects/art-lasovsky-8XddFc6NkBY-unsplash.jpg,Stimuli/Experimental_stims/outdoor_scenes/yuriy-bogdanov-W51VK3Obcj0-unsplash.jpg,0,NaN,NaN,NaN,unchosen,1000,50,50
30959,0,11,1,1,1,gain5,no_gain3,H,K,23,59,outdoor_scenes,objects,Stimuli/Experimental_stims/outdoor_scenes/yuriy-bogdanov-W51VK3Obcj0-unsplash.jpg,Stimuli/Experimental_stims/objects/ronaldo-arthur-vidal-Cdz_lvnl37k-unsplash.jpg,0,NaN,NaN,NaN,unchosen,1000,50,50
30959,0,12,1,1,0,no_gain3,gain6,K,B,37,13,body_parts,outdoor_scenes,Stimuli/Experimental_stims/body_parts/engin-akyurt-Q2rfH3GW39c-unsplash.jpg,Stimuli/Experimental_stims/outdoor_scenes/ashim-d-silva-S2Q5mdOrrVc-unsplash.jpg,0,NaN,NaN,NaN,chosen,3500,50,50
30959,0,13,1,1,1,gain3,no_gain3,D,K,56,37,objects,body_parts,Stimuli/Experimental_stims/objects/jonathan-greenaway-Y4hGgeiFn3s-unsplash.jpg,Stimuli/Experimental_stims/body_parts/engin-akyurt-Q2rfH3GW39c-unsplash.jpg,0,NaN,NaN,NaN,chosen,1500,50,50
30959,0,14,1,1,1,gain3,no_gain2,D,A,56,19,objects,outdoor_scenes,Stimuli/Experimental_stims/objects/jonathan-greenaway-Y4hGgeiFn3s-unsplash.jpg,Stimuli/Experimental_stims/outdoor_scenes/petr-vysohlid-9fqwGqGLUxc-unsplash.jpg,0,NaN,NaN,NaN,chosen,1500,50,50
30959,0,15,1,1,0,no_gain5,gain6,C,B,15,13,outdoor_scenes,outdoor_scenes,Stimuli/Experimental_stims/outdoor_scenes/henry-be-NLF6hTe4PAg-unsplash.jpg,Stimuli/Experimental_stims/outdoor_scenes/ashim-d-silva-S2Q5mdOrrVc-unsplash.jpg,0,NaN,NaN,NaN,chosen,1500,50,50
30959,0,16,1,1,0,no_gain5,gain1,C,G,15,57,outdoor_scenes,objects,Stimuli/Experimental_stims/outdoor_scenes/henry-be-NLF6hTe4PAg-unsplash.jpg,Stimuli/Experimental_stims/objects/kuiye-chen-NuOGFo4PudE-unsplash.jpg,0,NaN,NaN,NaN,chosen,2000,50,50
30959,0,17,1,1,1,gain5,no_gain1,H,J,27,31,faces,faces,Stimuli/Experimental_stims/faces/daniel-rigdon-dXmXKPP2L4E-unsplash.jpg,Stimuli/Experimental_stims/faces/jessica-radanavong-mrYkTuAesKE-unsplash.jpg,0,NaN,NaN,NaN,chosen,1500,50,50
30959,0,18,1,1,0,no_gain2,gain5,A,H,19,27,outdoor_scenes,faces,Stimuli/Experimental_stims/outdoor_scenes/petr-vysohlid-9fqwGqGLUxc-unsplash.jpg,Stimuli/Experimental_stims/faces/daniel-rigdon-dXmXKPP2L4E-unsplash.jpg,0,NaN,NaN,NaN,chosen,2000,50,50
30959,0,19,1,1,1,gain1,no_gain4,G,E,57,54,objects,objects,Stimuli/Experimental_stims/objects/kuiye-chen-NuOGFo4PudE-unsplash.jpg,Stimuli/Experimental_stims/objects/jess-bailey-nOeVi8DsN8U-unsplash.jpg,0,NaN,NaN,NaN,chosen,1000,50,50
30959,0,20,1,1,0,no_gain4,gain5,E,H,36,23,body_parts,outdoor_scenes,Stimuli/Experimental_stims/body_parts/callum-skelton-3KLMq7y46nA-unsplash.jpg,Stimuli/Experimental_stims/outdoor_scenes/yuriy-bogdanov-W51VK3Obcj0-unsplash.jpg,0,NaN,NaN,NaN,unchosen,3500,50,50
30959,0,21,1,1,0,no_gain2,gain5,A,H,55,23,objects,outdoor_scenes,Stimuli/Experimental_stims/objects/jiangxulei1990-eIzzzwtkBjU-unsplash.jpg,Stimuli/Experimental_stims/outdoor_scenes/yuriy-bogdanov-W51VK3Obcj0-unsplash.jpg,0,NaN,NaN,NaN,unchosen,1500,50,50
30959,0,22,1,1,1,gain5,no_gain6,H,F,27,25,faces,faces,Stimuli/Experimental_stims/faces/daniel-rigdon-dXmXKPP2L4E-unsplash.jpg,Stimuli/Experimental_stims/faces/aiony-haust-jmATI5Q_YgY-unsplash.jpg,0,NaN,NaN,NaN,chosen,1000,50,50
30959,0,23,1,1,0,no_gain5,gain2,C,I,15,38,outdoor_scenes,body_parts,Stimuli/Experimental_stims/outdoor_scenes/henry-be-NLF6hTe4PAg-unsplash.jpg,Stimuli/Experimental_stims/body_parts/engin-akyurt-x_3gyC42btc-unsplash.jpg,0,NaN,NaN,NaN,chosen,1500,50,50
30959,0,24,1,1,1,gain3,no_gain4,D,E,56,54,objects,objects,Stimuli/Experimental_stims/objects/jonathan-greenaway-Y4hGgeiFn3s-unsplash.jpg,Stimuli/Experimental_stims/objects/jess-bailey-nOeVi8DsN8U-unsplash.jpg,0,NaN,NaN,NaN,chosen,2000,50,50
30959,0,25,1,1,1,gain1,no_gain5,G,C,22,45,outdoor_scenes,body_parts,Stimuli/Experimental_stims/outdoor_scenes/stephen-leonardi-gyIRjKPXupE-unsplash.jpg,Stimuli/Experimental_stims/body_parts/sincerely-media-7TBFwUQA6Xk-unsplash.jpg,0,NaN,NaN,NaN,unchosen,1500,50,50
30959,0,26,1,1,0,no_gain6,gain4,F,L,43,32,body_parts,faces,Stimuli/Experimental_stims/body_parts/megan-menegay-UojxG_BJxnI-unsplash.jpg,Stimuli/Experimental_stims/faces/justin-chen-J7Cf1Gch49E-unsplash.jpg,0,NaN,NaN,NaN,unchosen,1000,50,50
30959,0,27,1,1,0,no_gain4,gain1,E,G,36,22,body_parts,outdoor_scenes,Stimuli/Experimental_stims/body_parts/callum-skelton-3KLMq7y46nA-unsplash.jpg,Stimuli/Experimental_stims/outdoor_scenes/stephen-leonardi-gyIRjKPXupE-unsplash.jpg,0,NaN,NaN,NaN,unchosen,2000,50,50
30959,0,28,1,1,0,no_gain4,gain6,E,B,54,13,objects,outdoor_scenes,Stimuli/Experimental_stims/objects/jess-bailey-nOeVi8DsN8U-unsplash.jpg,Stimuli/Experimental_stims/outdoor_scenes/ashim-d-silva-S2Q5mdOrrVc-unsplash.jpg,0,NaN,NaN,NaN,chosen,1000,50,50
30959,0,29,1,1,1,gain6,no_gain6,B,F,29,43,faces,body_parts,Stimuli/Experimental_stims/faces/freddy-kearney-o-ioeoATbIM-unsplash.jpg,Stimuli/Experimental_stims/body_parts/megan-menegay-UojxG_BJxnI-unsplash.jpg,0,NaN,NaN,NaN,unchosen,1000,50,50
30959,0,30,1,1,0,no_gain1,gain6,J,B,31,13,faces,outdoor_scenes,Stimuli/Experimental_stims/faces/jessica-radanavong-mrYkTuAesKE-unsplash.jpg,Stimuli/Experimental_stims/outdoor_scenes/ashim-d-silva-S2Q5mdOrrVc-unsplash.jpg,0,NaN,NaN,NaN,chosen,3000,50,50
30959,0,31,1,1,0,no_gain4,gain2,E,I,54,38,objects,body_parts,Stimuli/Experimental_stims/objects/jess-bailey-nOeVi8DsN8U-unsplash.jpg,Stimuli/Experimental_stims/body_parts/engin-akyurt-x_3gyC42btc-unsplash.jpg,0,NaN,NaN,NaN,chosen,1500,50,50
30959,0,32,1,1,1,gain2,no_gain1,I,J,18,51,outdoor_scenes,objects,Stimuli/Experimental_stims/outdoor_scenes/meng-ji-8BH_M-53CyA-unsplash.jpg,Stimuli/Experimental_stims/objects/art-lasovsky-8XddFc6NkBY-unsplash.jpg,0,NaN,NaN,NaN,unchosen,1000,50,50
30959,0,33,1,1,1,gain6,no_gain6,B,F,13,25,outdoor_scenes,faces,Stimuli/Experimental_stims/outdoor_scenes/ashim-d-silva-S2Q5mdOrrVc-unsplash.jpg,Stimuli/Experimental_stims/faces/aiony-haust-jmATI5Q_YgY-unsplash.jpg,0,NaN,NaN,NaN,chosen,2000,50,50
30959,0,34,1,1,1,gain3,no_gain2,D,A,33,55,faces,objects,Stimuli/Experimental_stims/faces/leilani-angel-K84vnnzxmTQ-unsplash.jpg,Stimuli/Experimental_stims/objects/jiangxulei1990-eIzzzwtkBjU-unsplash.jpg,0,NaN,NaN,NaN,unchosen,1000,50,50
30959,0,35,1,1,0,no_gain4,gain6,E,B,36,29,body_parts,faces,Stimuli/Experimental_stims/body_parts/callum-skelton-3KLMq7y46nA-unsplash.jpg,Stimuli/Experimental_stims/faces/freddy-kearney-o-ioeoATbIM-unsplash.jpg,0,NaN,NaN,NaN,unchosen,1500,50,50
30959,0,36,1,1,0,no_gain4,gain2,E,I,36,18,body_parts,outdoor_scenes,Stimuli/Experimental_stims/body_parts/callum-skelton-3KLMq7y46nA-unsplash.jpg,Stimuli/Experimental_stims/outdoor_scenes/meng-ji-8BH_M-53CyA-unsplash.jpg,0,NaN,NaN,NaN,unchosen,1000,50,50
30959,0,37,1,1,0,no_gain5,gain6,C,B,45,29,body_parts,faces,Stimuli/Experimental_stims/body_parts/sincerely-media-7TBFwUQA6Xk-unsplash.jpg,Stimuli/Experimental_stims/faces/freddy-kearney-o-ioeoATbIM-unsplash.jpg,0,NaN,NaN,NaN,unchosen,2000,50,50
30959,0,38,1,1,1,gain2,no_gain6,I,F,18,43,outdoor_scenes,body_parts,Stimuli/Experimental_stims/outdoor_scenes/meng-ji-8BH_M-53CyA-unsplash.jpg,Stimuli/Experimental_stims/body_parts/megan-menegay-UojxG_BJxnI-unsplash.jpg,0,NaN,NaN,NaN,unchosen,2000,50,50
30959,0,39,1,1,1,gain3,no_gain1,D,J,56,31,objects,faces,Stimuli/Experimental_stims/objects/jonathan-greenaway-Y4hGgeiFn3s-unsplash.jpg,Stimuli/Experimental_stims/faces/jessica-radanavong-mrYkTuAesKE-unsplash.jpg,0,NaN,NaN,NaN,chosen,1500,50,50
30959,0,40,1,1,0,no_gain5,gain4,C,L,45,32,body_parts,faces,Stimuli/Experimental_stims/body_parts/sincerely-media-7TBFwUQA6Xk-unsplash.jpg,Stimuli/Experimental_stims/faces/justin-chen-J7Cf1Gch49E-unsplash.jpg,0,NaN,NaN,NaN,unchosen,1000,50,50
30959,0,41,1,1,1,gain3,no_gain6,D,F,33,43,faces,body_parts,Stimuli/Experimental_stims/faces/leilani-angel-K84vnnzxmTQ-unsplash.jpg,Stimuli/Experimental_stims/body_parts/megan-menegay-UojxG_BJxnI-unsplash.jpg,0,NaN,NaN,NaN,unchosen,3500,50,50
30959,0,42,1,1,1,gain3,no_gain5,D,C,33,45,faces,body_parts,Stimuli/Experimental_stims/faces/leilani-angel-K84vnnzxmTQ-unsplash.jpg,Stimuli/Experimental_stims/body_parts/sincerely-media-7TBFwUQA6Xk-unsplash.jpg,0,NaN,NaN,NaN,unchosen,1500,50,50
30959,0,43,1,1,0,no_gain3,gain4,K,L,59,32,objects,faces,Stimuli/Experimental_stims/objects/ronaldo-arthur-vidal-Cdz_lvnl37k-unsplash.jpg,Stimuli/Experimental_stims/faces/justin-chen-J7Cf1Gch49E-unsplash.jpg,0,NaN,NaN,NaN,unchosen,1500,50,50
30959,0,44,1,1,0,no_gain6,gain1,F,G,25,57,faces,objects,Stimuli/Experimental_stims/faces/aiony-haust-jmATI5Q_YgY-unsplash.jpg,Stimuli/Experimental_stims/objects/kuiye-chen-NuOGFo4PudE-unsplash.jpg,0,NaN,NaN,NaN,chosen,1500,50,50
30959,0,45,1,1,1,gain4,no_gain5,L,C,46,15,body_parts,outdoor_scenes,Stimuli/Experimental_stims/body_parts/sincerely-media-VN6DbKajo5s-unsplash.jpg,Stimuli/Experimental_stims/outdoor_scenes/henry-be-NLF6hTe4PAg-unsplash.jpg,0,NaN,NaN,NaN,chosen,1000,50,50
30959,0,46,1,1,1,gain1,no_gain6,G,F,22,43,outdoor_scenes,body_parts,Stimuli/Experimental_stims/outdoor_scenes/stephen-leonardi-gyIRjKPXupE-unsplash.jpg,Stimuli/Experimental_stims/body_parts/megan-menegay-UojxG_BJxnI-unsplash.jpg,0,NaN,NaN,NaN,unchosen,3000,50,50
30959,0,47,1,1,1,gain1,no_gain1,G,J,57,31,objects,faces,Stimuli/Experimental_stims/objects/kuiye-chen-NuOGFo4PudE-unsplash.jpg,Stimuli/Experimental_stims/faces/jessica-radanavong-mrYkTuAesKE-unsplash.jpg,0,NaN,NaN,NaN,chosen,1000,50,50
30959,0,48,1,1,0,no_gain4,gain5,E,H,54,27,objects,faces,Stimuli/Experimental_stims/objects/jess-bailey-nOeVi8DsN8U-unsplash.jpg,Stimuli/Experimental_stims/faces/daniel-rigdon-dXmXKPP2L4E-unsplash.jpg,0,NaN,NaN,NaN,chosen,1000,50,50
30959,0,49,1,1,1,gain4,no_gain6,L,F,46,25,body_parts,faces,Stimuli/Experimental_stims/body_parts/sincerely-media-VN6DbKajo5s-unsplash.jpg,Stimuli/Experimental_stims/faces/aiony-haust-jmATI5Q_YgY-unsplash.jpg,0,NaN,NaN,NaN,chosen,1000,50,50
30959,0,50,1,1,1,gain5,no_gain6,H,F,23,43,outdoor_scenes,body_parts,Stimuli/Experimental_stims/outdoor_scenes/yuriy-bogdanov-W51VK3Obcj0-unsplash.jpg,Stimuli/Experimental_stims/body_parts/megan-menegay-UojxG_BJxnI-unsplash.jpg,0,NaN,NaN,NaN,unchosen,1000,50,50
30959,0,51,1,1,0,no_gain2,gain4,A,L,19,46,outdoor_scenes,body_parts,Stimuli/Experimental_stims/outdoor_scenes/petr-vysohlid-9fqwGqGLUxc-unsplash.jpg,Stimuli/Experimental_stims/body_parts/sincerely-media-VN6DbKajo5s-unsplash.jpg,0,NaN,NaN,NaN,chosen,1000,50,50
30959,0,52,1,1,1,gain1,no_gain3,G,K,57,37,objects,body_parts,Stimuli/Experimental_stims/objects/kuiye-chen-NuOGFo4PudE-unsplash.jpg,Stimuli/Experimental_stims/body_parts/engin-akyurt-Q2rfH3GW39c-unsplash.jpg,0,NaN,NaN,NaN,chosen,1500,50,50
30959,0,53,1,1,1,gain6,no_gain3,B,K,29,59,faces,objects,Stimuli/Experimental_stims/faces/freddy-kearney-o-ioeoATbIM-unsplash.jpg,Stimuli/Experimental_stims/objects/ronaldo-arthur-vidal-Cdz_lvnl37k-unsplash.jpg,0,NaN,NaN,NaN,unchosen,1500,50,50
30959,0,54,1,1,0,no_gain1,gain6,J,B,51,29,objects,faces,Stimuli/Experimental_stims/objects/art-lasovsky-8XddFc6NkBY-unsplash.jpg,Stimuli/Experimental_stims/faces/freddy-kearney-o-ioeoATbIM-unsplash.jpg,0,NaN,NaN,NaN,unchosen,1500,50,50
30959,0,55,1,1,1,gain4,no_gain4,L,E,46,54,body_parts,objects,Stimuli/Experimental_stims/body_parts/sincerely-media-VN6DbKajo5s-unsplash.jpg,Stimuli/Experimental_stims/objects/jess-bailey-nOeVi8DsN8U-unsplash.jpg,0,NaN,NaN,NaN,chosen,2000,50,50
30959,0,56,1,1,0,no_gain3,gain2,K,I,37,38,body_parts,body_parts,Stimuli/Experimental_stims/body_parts/engin-akyurt-Q2rfH3GW39c-unsplash.jpg,Stimuli/Experimental_stims/body_parts/engin-akyurt-x_3gyC42btc-unsplash.jpg,0,NaN,NaN,NaN,chosen,1000,50,50
30959,0,57,1,1,1,gain2,no_gain2,I,A,38,19,body_parts,outdoor_scenes,Stimuli/Experimental_stims/body_parts/engin-akyurt-x_3gyC42btc-unsplash.jpg,Stimuli/Experimental_stims/outdoor_scenes/petr-vysohlid-9fqwGqGLUxc-unsplash.jpg,0,NaN,NaN,NaN,chosen,1500,50,50
30959,0,58,1,1,1,gain3,no_gain4,D,E,33,36,faces,body_parts,Stimuli/Experimental_stims/faces/leilani-angel-K84vnnzxmTQ-unsplash.jpg,Stimuli/Experimental_stims/body_parts/callum-skelton-3KLMq7y46nA-unsplash.jpg,0,NaN,NaN,NaN,unchosen,3000,50,50
30959,0,59,1,1,0,no_gain2,gain1,A,G,19,57,outdoor_scenes,objects,Stimuli/Experimental_stims/outdoor_scenes/petr-vysohlid-9fqwGqGLUxc-unsplash.jpg,Stimuli/Experimental_stims/objects/kuiye-chen-NuOGFo4PudE-unsplash.jpg,0,NaN,NaN,NaN,chosen,2000,50,50
30959,0,60,1,1,0,no_gain5,gain5,C,H,45,23,body_parts,outdoor_scenes,Stimuli/Experimental_stims/body_parts/sincerely-media-7TBFwUQA6Xk-unsplash.jpg,Stimuli/Experimental_stims/outdoor_scenes/yuriy-bogdanov-W51VK3Obcj0-unsplash.jpg,0,NaN,NaN,NaN,unchosen,3000,50,50
30959,0,61,1,1,0,no_gain2,gain2,A,I,55,18,objects,outdoor_scenes,Stimuli/Experimental_stims/objects/jiangxulei1990-eIzzzwtkBjU-unsplash.jpg,Stimuli/Experimental_stims/outdoor_scenes/meng-ji-8BH_M-53CyA-unsplash.jpg,0,NaN,NaN,NaN,unchosen,1000,50,50
30959,0,62,1,1,1,gain2,no_gain3,I,K,18,59,outdoor_scenes,objects,Stimuli/Experimental_stims/outdoor_scenes/meng-ji-8BH_M-53CyA-unsplash.jpg,Stimuli/Experimental_stims/objects/ronaldo-arthur-vidal-Cdz_lvnl37k-unsplash.jpg,0,NaN,NaN,NaN,unchosen,2000,50,50
30959,0,63,1,1,0,no_gain2,gain4,A,L,55,32,objects,faces,Stimuli/Experimental_stims/objects/jiangxulei1990-eIzzzwtkBjU-unsplash.jpg,Stimuli/Experimental_stims/faces/justin-chen-J7Cf1Gch49E-unsplash.jpg,0,NaN,NaN,NaN,unchosen,2000,50,50
30959,0,64,1,1,0,no_gain6,gain3,F,D,25,56,faces,objects,Stimuli/Experimental_stims/faces/aiony-haust-jmATI5Q_YgY-unsplash.jpg,Stimuli/Experimental_stims/objects/jonathan-greenaway-Y4hGgeiFn3s-unsplash.jpg,0,NaN,NaN,NaN,chosen,1000,50,50
30959,0,65,1,1,1,gain5,no_gain3,H,K,27,37,faces,body_parts,Stimuli/Experimental_stims/faces/daniel-rigdon-dXmXKPP2L4E-unsplash.jpg,Stimuli/Experimental_stims/body_parts/engin-akyurt-Q2rfH3GW39c-unsplash.jpg,0,NaN,NaN,NaN,chosen,3000,50,50
30959,0,66,1,1,1,gain4,no_gain3,L,K,46,37,body_parts,body_parts,Stimuli/Experimental_stims/body_parts/sincerely-media-VN6DbKajo5s-unsplash.jpg,Stimuli/Experimental_stims/body_parts/engin-akyurt-Q2rfH3GW39c-unsplash.jpg,0,NaN,NaN,NaN,chosen,3000,50,50
30959,0,67,1,1,0,no_gain3,gain1,K,G,59,22,objects,outdoor_scenes,Stimuli/Experimental_stims/objects/ronaldo-arthur-vidal-Cdz_lvnl37k-unsplash.jpg,Stimuli/Experimental_stims/outdoor_scenes/stephen-leonardi-gyIRjKPXupE-unsplash.jpg,0,NaN,NaN,NaN,unchosen,1000,50,50
30959,0,68,1,1,1,gain5,no_gain5,H,C,27,15,faces,outdoor_scenes,Stimuli/Experimental_stims/faces/daniel-rigdon-dXmXKPP2L4E-unsplash.jpg,Stimuli/Experimental_stims/outdoor_scenes/henry-be-NLF6hTe4PAg-unsplash.jpg,0,NaN,NaN,NaN,chosen,1000,50,50
30959,0,69,1,1,1,gain6,no_gain2,B,A,29,55,faces,objects,Stimuli/Experimental_stims/faces/freddy-kearney-o-ioeoATbIM-unsplash.jpg,Stimuli/Experimental_stims/objects/jiangxulei1990-eIzzzwtkBjU-unsplash.jpg,0,NaN,NaN,NaN,unchosen,2000,50,50
30959,0,70,1,1,1,gain1,no_gain1,G,J,22,51,outdoor_scenes,objects,Stimuli/Experimental_stims/outdoor_scenes/stephen-leonardi-gyIRjKPXupE-unsplash.jpg,Stimuli/Experimental_stims/objects/art-lasovsky-8XddFc6NkBY-unsplash.jpg,0,NaN,NaN,NaN,unchosen,1000,50,50
30959,0,71,1,1,0,no_gain2,gain6,A,B,19,13,outdoor_scenes,outdoor_scenes,Stimuli/Experimental_stims/outdoor_scenes/petr-vysohlid-9fqwGqGLUxc-unsplash.jpg,Stimuli/Experimental_stims/outdoor_scenes/ashim-d-silva-S2Q5mdOrrVc-unsplash.jpg,0,NaN,NaN,NaN,chosen,1000,50,50
30959,0,72,1,1,0,no_gain5,gain2,C,I,45,18,body_parts,outdoor_scenes,Stimuli/Experimental_stims/body_parts/sincerely-media-7TBFwUQA6Xk-unsplash.jpg,Stimuli/Experimental_stims/outdoor_scenes/meng-ji-8BH_M-53CyA-unsplash.jpg,0,NaN,NaN,NaN,unchosen,1500,50,50
30959,0,73,1,1,0,no_gain1,gain2,J,I,31,38,faces,body_parts,Stimuli/Experimental_stims/faces/jessica-radanavong-mrYkTuAesKE-unsplash.jpg,Stimuli/Experimental_stims/body_parts/engin-akyurt-x_3gyC42btc-unsplash.jpg,0,NaN,NaN,NaN,chosen,3500,50,50
30959,0,74,1,1,0,no_gain1,gain4,J,L,31,46,faces,body_parts,Stimuli/Experimental_stims/faces/jessica-radanavong-mrYkTuAesKE-unsplash.jpg,Stimuli/Experimental_stims/body_parts/sincerely-media-VN6DbKajo5s-unsplash.jpg,0,NaN,NaN,NaN,chosen,1000,50,50
30959,0,75,1,1,1,gain4,no_gain4,L,E,32,36,faces,body_parts,Stimuli/Experimental_stims/faces/justin-chen-J7Cf1Gch49E-unsplash.jpg,Stimuli/Experimental_stims/body_parts/callum-skelton-3KLMq7y46nA-unsplash.jpg,0,NaN,NaN,NaN,unchosen,1000,50,50
30959,0,76,1,1,0,no_gain1,gain4,J,L,51,32,objects,faces,Stimuli/Experimental_stims/objects/art-lasovsky-8XddFc6NkBY-unsplash.jpg,Stimuli/Experimental_stims/faces/justin-chen-J7Cf1Gch49E-unsplash.jpg,0,NaN,NaN,NaN,unchosen,1500,50,50
30959,0,77,2,2,1,gain3,no_gain1,D,J,33,51,faces,objects,Stimuli/Experimental_stims/faces/leilani-angel-K84vnnzxmTQ-unsplash.jpg,Stimuli/Experimental_stims/objects/art-lasovsky-8XddFc6NkBY-unsplash.jpg,0,NaN,NaN,NaN,unchosen,1500,50,50
30959,0,78,2,2,1,gain2,no_gain5,I,C,18,45,outdoor_scenes,body_parts,Stimuli/Experimental_stims/outdoor_scenes/meng-ji-8BH_M-53CyA-unsplash.jpg,Stimuli/Experimental_stims/body_parts/sincerely-media-7TBFwUQA6Xk-unsplash.jpg,0,NaN,NaN,NaN,unchosen,1500,50,50
30959,0,79,2,2,1,gain5,no_gain2,H,A,27,19,faces,outdoor_scenes,Stimuli/Experimental_stims/faces/daniel-rigdon-dXmXKPP2L4E-unsplash.jpg,Stimuli/Experimental_stims/outdoor_scenes/petr-vysohlid-9fqwGqGLUxc-unsplash.jpg,0,NaN,NaN,NaN,chosen,1000,50,50
30959,0,80,2,2,0,no_gain2,gain2,A,I,19,38,outdoor_scenes,body_parts,Stimuli/Experimental_stims/outdoor_scenes/petr-vysohlid-9fqwGqGLUxc-unsplash.jpg,Stimuli/Experimental_stims/body_parts/engin-akyurt-x_3gyC42btc-unsplash.jpg,0,NaN,NaN,NaN,chosen,1000,50,50
30959,0,81,2,2,1,gain2,no_gain1,I,J,18,51,outdoor_scenes,objects,Stimuli/Experimental_stims/outdoor_scenes/meng-ji-8BH_M-53CyA-unsplash.jpg,Stimuli/Experimental_stims/objects/art-lasovsky-8XddFc6NkBY-unsplash.jpg,0,NaN,NaN,NaN,unchosen,1500,50,50
30959,0,82,2,2,0,no_gain4,gain1,E,G,36,22,body_parts,outdoor_scenes,Stimuli/Experimental_stims/body_parts/callum-skelton-3KLMq7y46nA-unsplash.jpg,Stimuli/Experimental_stims/outdoor_scenes/stephen-leonardi-gyIRjKPXupE-unsplash.jpg,0,NaN,NaN,NaN,unchosen,1000,50,50
30959,0,83,2,2,1,gain1,no_gain3,G,K,57,37,objects,body_parts,Stimuli/Experimental_stims/objects/kuiye-chen-NuOGFo4PudE-unsplash.jpg,Stimuli/Experimental_stims/body_parts/engin-akyurt-Q2rfH3GW39c-unsplash.jpg,0,NaN,NaN,NaN,chosen,1500,50,50
30959,0,84,2,2,1,gain4,no_gain3,L,K,46,37,body_parts,body_parts,Stimuli/Experimental_stims/body_parts/sincerely-media-VN6DbKajo5s-unsplash.jpg,Stimuli/Experimental_stims/body_parts/engin-akyurt-Q2rfH3GW39c-unsplash.jpg,0,NaN,NaN,NaN,chosen,2000,50,50
30959,0,85,2,2,0,no_gain5,gain5,C,H,15,27,outdoor_scenes,faces,Stimuli/Experimental_stims/outdoor_scenes/henry-be-NLF6hTe4PAg-unsplash.jpg,Stimuli/Experimental_stims/faces/daniel-rigdon-dXmXKPP2L4E-unsplash.jpg,0,NaN,NaN,NaN,chosen,3000,50,50
30959,0,86,2,2,0,no_gain3,gain5,K,H,59,23,objects,outdoor_scenes,Stimuli/Experimental_stims/objects/ronaldo-arthur-vidal-Cdz_lvnl37k-unsplash.jpg,Stimuli/Experimental_stims/outdoor_scenes/yuriy-bogdanov-W51VK3Obcj0-unsplash.jpg,0,NaN,NaN,NaN,unchosen,2000,50,50
30959,0,87,2,2,1,gain5,no_gain2,H,A,23,55,outdoor_scenes,objects,Stimuli/Experimental_stims/outdoor_scenes/yuriy-bogdanov-W51VK3Obcj0-unsplash.jpg,Stimuli/Experimental_stims/objects/jiangxulei1990-eIzzzwtkBjU-unsplash.jpg,0,NaN,NaN,NaN,unchosen,1500,50,50
30959,0,88,2,2,1,gain6,no_gain2,B,A,29,55,faces,objects,Stimuli/Experimental_stims/faces/freddy-kearney-o-ioeoATbIM-unsplash.jpg,Stimuli/Experimental_stims/objects/jiangxulei1990-eIzzzwtkBjU-unsplash.jpg,0,NaN,NaN,NaN,unchosen,3000,50,50
30959,0,89,2,2,0,no_gain3,gain3,K,D,59,33,objects,faces,Stimuli/Experimental_stims/objects/ronaldo-arthur-vidal-Cdz_lvnl37k-unsplash.jpg,Stimuli/Experimental_stims/faces/leilani-angel-K84vnnzxmTQ-unsplash.jpg,0,NaN,NaN,NaN,unchosen,1000,50,50
30959,0,90,2,2,0,no_gain6,gain1,F,G,43,22,body_parts,outdoor_scenes,Stimuli/Experimental_stims/body_parts/megan-menegay-UojxG_BJxnI-unsplash.jpg,Stimuli/Experimental_stims/outdoor_scenes/stephen-leonardi-gyIRjKPXupE-unsplash.jpg,0,NaN,NaN,NaN,unchosen,1000,50,50
30959,0,91,2,2,1,gain2,no_gain6,I,F,18,43,outdoor_scenes,body_parts,Stimuli/Experimental_stims/outdoor_scenes/meng-ji-8BH_M-53CyA-unsplash.jpg,Stimuli/Experimental_stims/body_parts/megan-menegay-UojxG_BJxnI-unsplash.jpg,0,NaN,NaN,NaN,unchosen,1000,50,50
30959,0,92,2,2,1,gain4,no_gain1,L,J,32,51,faces,objects,Stimuli/Experimental_stims/faces/justin-chen-J7Cf1Gch49E-unsplash.jpg,Stimuli/Experimental_stims/objects/art-lasovsky-8XddFc6NkBY-unsplash.jpg,0,NaN,NaN,NaN,unchosen,2000,50,50
30959,0,93,2,2,0,no_gain4,gain2,E,I,54,38,objects,body_parts,Stimuli/Experimental_stims/objects/jess-bailey-nOeVi8DsN8U-unsplash.jpg,Stimuli/Experimental_stims/body_parts/engin-akyurt-x_3gyC42btc-unsplash.jpg,0,NaN,NaN,NaN,chosen,2000,50,50
30959,0,94,2,2,0,no_gain6,gain5,F,H,43,23,body_parts,outdoor_scenes,Stimuli/Experimental_stims/body_parts/megan-menegay-UojxG_BJxnI-unsplash.jpg,Stimuli/Experimental_stims/outdoor_scenes/yuriy-bogdanov-W51VK3Obcj0-unsplash.jpg,0,NaN,NaN,NaN,unchosen,3000,50,50
30959,0,95,2,2,0,no_gain1,gain3,J,D,31,56,faces,objects,Stimuli/Experimental_stims/faces/jessica-radanavong-mrYkTuAesKE-unsplash.jpg,Stimuli/Experimental_stims/objects/jonathan-greenaway-Y4hGgeiFn3s-unsplash.jpg,0,NaN,NaN,NaN,chosen,1000,50,50
30959,0,96,2,2,0,no_gain6,gain5,F,H,25,27,faces,faces,Stimuli/Experimental_stims/faces/aiony-haust-jmATI5Q_YgY-unsplash.jpg,Stimuli/Experimental_stims/faces/daniel-rigdon-dXmXKPP2L4E-unsplash.jpg,0,NaN,NaN,NaN,chosen,1500,50,50
30959,0,97,2,2,0,no_gain4,gain4,E,L,54,46,objects,body_parts,Stimuli/Experimental_stims/objects/jess-bailey-nOeVi8DsN8U-unsplash.jpg,Stimuli/Experimental_stims/body_parts/sincerely-media-VN6DbKajo5s-unsplash.jpg,0,NaN,NaN,NaN,chosen,1500,50,50
30959,0,98,2,2,0,no_gain2,gain6,A,B,19,13,outdoor_scenes,outdoor_scenes,Stimuli/Experimental_stims/outdoor_scenes/petr-vysohlid-9fqwGqGLUxc-unsplash.jpg,Stimuli/Experimental_stims/outdoor_scenes/ashim-d-silva-S2Q5mdOrrVc-unsplash.jpg,0,NaN,NaN,NaN,chosen,1000,50,50
30959,0,99,2,2,1,gain4,no_gain2,L,A,46,19,body_parts,outdoor_scenes,Stimuli/Experimental_stims/body_parts/sincerely-media-VN6DbKajo5s-unsplash.jpg,Stimuli/Experimental_stims/outdoor_scenes/petr-vysohlid-9fqwGqGLUxc-unsplash.jpg,0,NaN,NaN,NaN,chosen,1000,50,50
30959,0,100,2,2,1,gain4,no_gain3,L,K,32,59,faces,objects,Stimuli/Experimental_stims/faces/justin-chen-J7Cf1Gch49E-unsplash.jpg,Stimuli/Experimental_stims/objects/ronaldo-arthur-vidal-Cdz_lvnl37k-unsplash.jpg,0,NaN,NaN,NaN,unchosen,1500,50,50
30959,0,101,2,2,1,gain5,no_gain5,H,C,23,45,outdoor_scenes,body_parts,Stimuli/Experimental_stims/outdoor_scenes/yuriy-bogdanov-W51VK3Obcj0-unsplash.jpg,Stimuli/Experimental_stims/body_parts/sincerely-media-7TBFwUQA6Xk-unsplash.jpg,0,NaN,NaN,NaN,unchosen,1000,50,50
30959,0,102,2,2,1,gain1,no_gain5,G,C,57,15,objects,outdoor_scenes,Stimuli/Experimental_stims/objects/kuiye-chen-NuOGFo4PudE-unsplash.jpg,Stimuli/Experimental_stims/outdoor_scenes/henry-be-NLF6hTe4PAg-unsplash.jpg,0,NaN,NaN,NaN,chosen,1000,50,50
30959,0,103,2,2,0,no_gain5,gain1,C,G,45,22,body_parts,outdoor_scenes,Stimuli/Experimental_stims/body_parts/sincerely-media-7TBFwUQA6Xk-unsplash.jpg,Stimuli/Experimental_stims/outdoor_scenes/stephen-leonardi-gyIRjKPXupE-unsplash.jpg,0,NaN,NaN,NaN,unchosen,3000,50,50
30959,0,104,2,2,1,gain4,no_gain6,L,F,32,43,faces,body_parts,Stimuli/Experimental_stims/faces/justin-chen-J7Cf1Gch49E-unsplash.jpg,Stimuli/Experimental_stims/body_parts/megan-menegay-UojxG_BJxnI-unsplash.jpg,0,NaN,NaN,NaN,unchosen,3500,50,50
30959,0,105,2,2,0,no_gain6,gain2,F,I,25,38,faces,body_parts,Stimuli/Experimental_stims/faces/aiony-haust-jmATI5Q_YgY-unsplash.jpg,Stimuli/Experimental_stims/body_parts/engin-akyurt-x_3gyC42btc-unsplash.jpg,0,NaN,NaN,NaN,chosen,3000,50,50
30959,0,106,2,2,0,no_gain6,gain6,F,B,43,29,body_parts,faces,Stimuli/Experimental_stims/body_parts/megan-menegay-UojxG_BJxnI-unsplash.jpg,Stimuli/Experimental_stims/faces/freddy-kearney-o-ioeoATbIM-unsplash.jpg,0,NaN,NaN,NaN,unchosen,2000,50,50
30959,0,107,2,2,0,no_gain3,gain6,K,B,59,29,objects,faces,Stimuli/Experimental_stims/objects/ronaldo-arthur-vidal-Cdz_lvnl37k-unsplash.jpg,Stimuli/Experimental_stims/faces/freddy-kearney-o-ioeoATbIM-unsplash.jpg,0,NaN,NaN,NaN,unchosen,1000,50,50
30959,0,108,2,2,1,gain5,no_gain4,H,E,27,54,faces,objects,Stimuli/Experimental_stims/faces/daniel-rigdon-dXmXKPP2L4E-unsplash.jpg,Stimuli/Experimental_stims/objects/jess-bailey-nOeVi8DsN8U-unsplash.jpg,0,NaN,NaN,NaN,chosen,3000,50,50
30959,0,109,2,2,0,no_gain3,gain5,K,H,37,27,body_parts,faces,Stimuli/Experimental_stims/body_parts/engin-akyurt-Q2rfH3GW39c-unsplash.jpg,Stimuli/Experimental_stims/faces/daniel-rigdon-dXmXKPP2L4E-unsplash.jpg,0,NaN,NaN,NaN,chosen,1000,50,50
30959,0,110,2,2,0,no_gain5,gain4,C,L,45,32,body_parts,faces,Stimuli/Experimental_stims/body_parts/sincerely-media-7TBFwUQA6Xk-unsplash.jpg,Stimuli/Experimental_stims/faces/justin-chen-J7Cf1Gch49E-unsplash.jpg,0,NaN,NaN,NaN,unchosen,1500,50,50
30959,0,111,2,2,0,no_gain2,gain2,A,I,55,18,objects,outdoor_scenes,Stimuli/Experimental_stims/objects/jiangxulei1990-eIzzzwtkBjU-unsplash.jpg,Stimuli/Experimental_stims/outdoor_scenes/meng-ji-8BH_M-53CyA-unsplash.jpg,0,NaN,NaN,NaN,unchosen,1000,50,50
30959,0,112,2,2,1,gain4,no_gain5,L,C,46,15,body_parts,outdoor_scenes,Stimuli/Experimental_stims/body_parts/sincerely-media-VN6DbKajo5s-unsplash.jpg,Stimuli/Experimental_stims/outdoor_scenes/henry-be-NLF6hTe4PAg-unsplash.jpg,0,NaN,NaN,NaN,chosen,1500,50,50
30959,0,113,2,2,0,no_gain2,gain1,A,G,19,57,outdoor_scenes,objects,Stimuli/Experimental_stims/outdoor_scenes/petr-vysohlid-9fqwGqGLUxc-unsplash.jpg,Stimuli/Experimental_stims/objects/kuiye-chen-NuOGFo4PudE-unsplash.jpg,0,NaN,NaN,NaN,chosen,1500,50,50
30959,0,114,2,2,1,gain1,no_gain1,G,J,57,31,objects,faces,Stimuli/Experimental_stims/objects/kuiye-chen-NuOGFo4PudE-unsplash.jpg,Stimuli/Experimental_stims/faces/jessica-radanavong-mrYkTuAesKE-unsplash.jpg,0,NaN,NaN,NaN,chosen,1000,50,50
30959,0,115,2,2,0,no_gain1,gain5,J,H,31,27,faces,faces,Stimuli/Experimental_stims/faces/jessica-radanavong-mrYkTuAesKE-unsplash.jpg,Stimuli/Experimental_stims/faces/daniel-rigdon-dXmXKPP2L4E-unsplash.jpg,0,NaN,NaN,NaN,chosen,1500,50,50
30959,0,116,2,2,1,gain3,no_gain4,D,E,33,36,faces,body_parts,Stimuli/Experimental_stims/faces/leilani-angel-K84vnnzxmTQ-unsplash.jpg,Stimuli/Experimental_stims/body_parts/callum-skelton-3KLMq7y46nA-unsplash.jpg,0,NaN,NaN,NaN,unchosen,3500,50,50
30959,0,117,2,2,0,no_gain1,gain1,J,G,51,22,objects,outdoor_scenes,Stimuli/Experimental_stims/objects/art-lasovsky-8XddFc6NkBY-unsplash.jpg,Stimuli/Experimental_stims/outdoor_scenes/stephen-leonardi-gyIRjKPXupE-unsplash.jpg,0,NaN,NaN,NaN,unchosen,1500,50,50
30959,0,118,2,2,1,gain3,no_gain6,D,F,56,25,objects,faces,Stimuli/Experimental_stims/objects/jonathan-greenaway-Y4hGgeiFn3s-unsplash.jpg,Stimuli/Experimental_stims/faces/aiony-haust-jmATI5Q_YgY-unsplash.jpg,0,NaN,NaN,NaN,chosen,1500,50,50
30959,0,119,2,2,1,gain6,no_gain1,B,J,13,31,outdoor_scenes,faces,Stimuli/Experimental_stims/outdoor_scenes/ashim-d-silva-S2Q5mdOrrVc-unsplash.jpg,Stimuli/Experimental_stims/faces/jessica-radanavong-mrYkTuAesKE-unsplash.jpg,0,NaN,NaN,NaN,chosen,1000,50,50
30959,0,120,2,2,0,no_gain2,gain3,A,D,55,33,objects,faces,Stimuli/Experimental_stims/objects/jiangxulei1990-eIzzzwtkBjU-unsplash.jpg,Stimuli/Experimental_stims/faces/leilani-angel-K84vnnzxmTQ-unsplash.jpg,0,NaN,NaN,NaN,unchosen,1000,50,50
30959,0,121,2,2,0,no_gain6,gain4,F,L,25,46,faces,body_parts,Stimuli/Experimental_stims/faces/aiony-haust-jmATI5Q_YgY-unsplash.jpg,Stimuli/Experimental_stims/body_parts/sincerely-media-VN6DbKajo5s-unsplash.jpg,0,NaN,NaN,NaN,chosen,1500,50,50
30959,0,122,2,2,1,gain3,no_gain3,D,K,56,37,objects,body_parts,Stimuli/Experimental_stims/objects/jonathan-greenaway-Y4hGgeiFn3s-unsplash.jpg,Stimuli/Experimental_stims/body_parts/engin-akyurt-Q2rfH3GW39c-unsplash.jpg,0,NaN,NaN,NaN,chosen,1000,50,50
30959,0,123,2,2,1,gain4,no_gain2,L,A,32,55,faces,objects,Stimuli/Experimental_stims/faces/justin-chen-J7Cf1Gch49E-unsplash.jpg,Stimuli/Experimental_stims/objects/jiangxulei1990-eIzzzwtkBjU-unsplash.jpg,0,NaN,NaN,NaN,unchosen,1000,50,50
30959,0,124,2,2,1,gain1,no_gain6,G,F,57,25,objects,faces,Stimuli/Experimental_stims/objects/kuiye-chen-NuOGFo4PudE-unsplash.jpg,Stimuli/Experimental_stims/faces/aiony-haust-jmATI5Q_YgY-unsplash.jpg,0,NaN,NaN,NaN,chosen,1000,50,50
30959,0,125,2,2,0,no_gain1,gain5,J,H,51,23,objects,outdoor_scenes,Stimuli/Experimental_stims/objects/art-lasovsky-8XddFc6NkBY-unsplash.jpg,Stimuli/Experimental_stims/outdoor_scenes/yuriy-bogdanov-W51VK3Obcj0-unsplash.jpg,0,NaN,NaN,NaN,unchosen,1500,50,50
30959,0,126,2,2,1,gain6,no_gain5,B,C,29,45,faces,body_parts,Stimuli/Experimental_stims/faces/freddy-kearney-o-ioeoATbIM-unsplash.jpg,Stimuli/Experimental_stims/body_parts/sincerely-media-7TBFwUQA6Xk-unsplash.jpg,0,NaN,NaN,NaN,unchosen,1000,50,50
30959,0,127,2,2,0,no_gain2,gain1,A,G,55,22,objects,outdoor_scenes,Stimuli/Experimental_stims/objects/jiangxulei1990-eIzzzwtkBjU-unsplash.jpg,Stimuli/Experimental_stims/outdoor_scenes/stephen-leonardi-gyIRjKPXupE-unsplash.jpg,0,NaN,NaN,NaN,unchosen,1000,50,50
30959,0,128,2,2,0,no_gain4,gain6,E,B,36,29,body_parts,faces,Stimuli/Experimental_stims/body_parts/callum-skelton-3KLMq7y46nA-unsplash.jpg,Stimuli/Experimental_stims/faces/freddy-kearney-o-ioeoATbIM-unsplash.jpg,0,NaN,NaN,NaN,unchosen,1500,50,50
30959,0,129,2,2,1,gain2,no_gain4,I,E,18,36,outdoor_scenes,body_parts,Stimuli/Experimental_stims/outdoor_scenes/meng-ji-8BH_M-53CyA-unsplash.jpg,Stimuli/Experimental_stims/body_parts/callum-skelton-3KLMq7y46nA-unsplash.jpg,0,NaN,NaN,NaN,unchosen,1000,50,50
30959,0,130,2,2,0,no_gain4,gain6,E,B,54,13,objects,outdoor_scenes,Stimuli/Experimental_stims/objects/jess-bailey-nOeVi8DsN8U-unsplash.jpg,Stimuli/Experimental_stims/outdoor_scenes/ashim-d-silva-S2Q5mdOrrVc-unsplash.jpg,0,NaN,NaN,NaN,chosen,3500,50,50
30959,0,131,2,2,0,no_gain6,gain6,F,B,25,13,faces,outdoor_scenes,Stimuli/Experimental_stims/faces/aiony-haust-jmATI5Q_YgY-unsplash.jpg,Stimuli/Experimental_stims/outdoor_scenes/ashim-d-silva-S2Q5mdOrrVc-unsplash.jpg,0,NaN,NaN,NaN,chosen,1500,50,50
30959,0,132,2,2,0,no_gain2,gain3,A,D,19,56,outdoor_scenes,objects,Stimuli/Experimental_stims/outdoor_scenes/petr-vysohlid-9fqwGqGLUxc-unsplash.jpg,Stimuli/Experimental_stims/objects/jonathan-greenaway-Y4hGgeiFn3s-unsplash.jpg,0,NaN,NaN,NaN,chosen,3500,50,50
30959,0,133,2,2,0,no_gain5,gain6,C,B,15,13,outdoor_scenes,outdoor_scenes,Stimuli/Experimental_stims/outdoor_scenes/henry-be-NLF6hTe4PAg-unsplash.jpg,Stimuli/Experimental_stims/outdoor_scenes/ashim-d-silva-S2Q5mdOrrVc-unsplash.jpg,0,NaN,NaN,NaN,chosen,2000,50,50
30959,0,134,2,2,1,gain2,no_gain5,I,C,38,15,body_parts,outdoor_scenes,Stimuli/Experimental_stims/body_parts/engin-akyurt-x_3gyC42btc-unsplash.jpg,Stimuli/Experimental_stims/outdoor_scenes/henry-be-NLF6hTe4PAg-unsplash.jpg,0,NaN,NaN,NaN,chosen,2000,50,50
30959,0,135,2,2,1,gain4,no_gain4,L,E,32,36,faces,body_parts,Stimuli/Experimental_stims/faces/justin-chen-J7Cf1Gch49E-unsplash.jpg,Stimuli/Experimental_stims/body_parts/callum-skelton-3KLMq7y46nA-unsplash.jpg,0,NaN,NaN,NaN,unchosen,2000,50,50
30959,0,136,2,2,0,no_gain5,gain3,C,D,45,33,body_parts,faces,Stimuli/Experimental_stims/body_parts/sincerely-media-7TBFwUQA6Xk-unsplash.jpg,Stimuli/Experimental_stims/faces/leilani-angel-K84vnnzxmTQ-unsplash.jpg,0,NaN,NaN,NaN,unchosen,1000,50,50
30959,0,137,2,2,1,gain1,no_gain3,G,K,22,59,outdoor_scenes,objects,Stimuli/Experimental_stims/outdoor_scenes/stephen-leonardi-gyIRjKPXupE-unsplash.jpg,Stimuli/Experimental_stims/objects/ronaldo-arthur-vidal-Cdz_lvnl37k-unsplash.jpg,0,NaN,NaN,NaN,unchosen,3000,50,50
30959,0,138,2,2,0,no_gain1,gain4,J,L,31,46,faces,body_parts,Stimuli/Experimental_stims/faces/jessica-radanavong-mrYkTuAesKE-unsplash.jpg,Stimuli/Experimental_stims/body_parts/sincerely-media-VN6DbKajo5s-unsplash.jpg,0,NaN,NaN,NaN,chosen,1500,50,50
30959,0,139,2,2,1,gain1,no_gain4,G,E,57,54,objects,objects,Stimuli/Experimental_stims/objects/kuiye-chen-NuOGFo4PudE-unsplash.jpg,Stimuli/Experimental_stims/objects/jess-bailey-nOeVi8DsN8U-unsplash.jpg,0,NaN,NaN,NaN,chosen,1000,50,50
30959,0,140,2,2,1,gain2,no_gain3,I,K,18,59,outdoor_scenes,objects,Stimuli/Experimental_stims/outdoor_scenes/meng-ji-8BH_M-53CyA-unsplash.jpg,Stimuli/Experimental_stims/objects/ronaldo-arthur-vidal-Cdz_lvnl37k-unsplash.jpg,0,NaN,NaN,NaN,unchosen,2000,50,50
30959,0,141,2,2,0,no_gain3,gain2,K,I,37,38,body_parts,body_parts,Stimuli/Experimental_stims/body_parts/engin-akyurt-Q2rfH3GW39c-unsplash.jpg,Stimuli/Experimental_stims/body_parts/engin-akyurt-x_3gyC42btc-unsplash.jpg,0,NaN,NaN,NaN,chosen,1000,50,50
30959,0,142,2,2,1,gain3,no_gain5,D,C,56,15,objects,outdoor_scenes,Stimuli/Experimental_stims/objects/jonathan-greenaway-Y4hGgeiFn3s-unsplash.jpg,Stimuli/Experimental_stims/outdoor_scenes/henry-be-NLF6hTe4PAg-unsplash.jpg,0,NaN,NaN,NaN,chosen,3000,50,50
30959,0,143,2,2,1,gain3,no_gain4,D,E,56,54,objects,objects,Stimuli/Experimental_stims/objects/jonathan-greenaway-Y4hGgeiFn3s-unsplash.jpg,Stimuli/Experimental_stims/objects/jess-bailey-nOeVi8DsN8U-unsplash.jpg,0,NaN,NaN,NaN,chosen,1000,50,50
30959,0,144,2,2,1,gain2,no_gain1,I,J,38,31,body_parts,faces,Stimuli/Experimental_stims/body_parts/engin-akyurt-x_3gyC42btc-unsplash.jpg,Stimuli/Experimental_stims/faces/jessica-radanavong-mrYkTuAesKE-unsplash.jpg,0,NaN,NaN,NaN,chosen,2000,50,50
30959,0,145,2,2,1,gain6,no_gain1,B,J,29,51,faces,objects,Stimuli/Experimental_stims/faces/freddy-kearney-o-ioeoATbIM-unsplash.jpg,Stimuli/Experimental_stims/objects/art-lasovsky-8XddFc6NkBY-unsplash.jpg,0,NaN,NaN,NaN,unchosen,2000,50,50
30959,0,146,2,2,1,gain6,no_gain3,B,K,13,37,outdoor_scenes,body_parts,Stimuli/Experimental_stims/outdoor_scenes/ashim-d-silva-S2Q5mdOrrVc-unsplash.jpg,Stimuli/Experimental_stims/body_parts/engin-akyurt-Q2rfH3GW39c-unsplash.jpg,0,NaN,NaN,NaN,chosen,2000,50,50
30959,0,147,2,2,0,no_gain6,gain3,F,D,43,33,body_parts,faces,Stimuli/Experimental_stims/body_parts/megan-menegay-UojxG_BJxnI-unsplash.jpg,Stimuli/Experimental_stims/faces/leilani-angel-K84vnnzxmTQ-unsplash.jpg,0,NaN,NaN,NaN,unchosen,1000,50,50
30959,0,148,2,2,0,no_gain4,gain5,E,H,36,23,body_parts,outdoor_scenes,Stimuli/Experimental_stims/body_parts/callum-skelton-3KLMq7y46nA-unsplash.jpg,Stimuli/Experimental_stims/outdoor_scenes/yuriy-bogdanov-W51VK3Obcj0-unsplash.jpg,0,NaN,NaN,NaN,unchosen,1500,50,50
30959,0,149,3,3,1,gain1,no_gain2,G,A,22,55,outdoor_scenes,objects,Stimuli/Experimental_stims/outdoor_scenes/stephen-leonardi-gyIRjKPXupE-unsplash.jpg,Stimuli/Experimental_stims/objects/jiangxulei1990-eIzzzwtkBjU-unsplash.jpg,0,NaN,NaN,NaN,unchosen,1000,50,50
30959,0,150,3,3,1,gain5,no_gain5,H,C,23,45,outdoor_scenes,body_parts,Stimuli/Experimental_stims/outdoor_scenes/yuriy-bogdanov-W51VK3Obcj0-unsplash.jpg,Stimuli/Experimental_stims/body_parts/sincerely-media-7TBFwUQA6Xk-unsplash.jpg,0,NaN,NaN,NaN,unchosen,1500,50,50
30959,0,151,3,3,1,gain5,no_gain1,H,J,23,51,outdoor_scenes,objects,Stimuli/Experimental_stims/outdoor_scenes/yuriy-bogdanov-W51VK3Obcj0-unsplash.jpg,Stimuli/Experimental_stims/objects/art-lasovsky-8XddFc6NkBY-unsplash.jpg,0,NaN,NaN,NaN,unchosen,1500,50,50
30959,0,152,3,3,1,gain6,no_gain3,B,K,29,59,faces,objects,Stimuli/Experimental_stims/faces/freddy-kearney-o-ioeoATbIM-unsplash.jpg,Stimuli/Experimental_stims/objects/ronaldo-arthur-vidal-Cdz_lvnl37k-unsplash.jpg,0,NaN,NaN,NaN,unchosen,1000,50,50
30959,0,153,3,3,1,gain1,no_gain4,G,E,57,54,objects,objects,Stimuli/Experimental_stims/objects/kuiye-chen-NuOGFo4PudE-unsplash.jpg,Stimuli/Experimental_stims/objects/jess-bailey-nOeVi8DsN8U-unsplash.jpg,0,NaN,NaN,NaN,chosen,3500,50,50
30959,0,154,3,3,0,no_gain3,gain5,K,H,59,23,objects,outdoor_scenes,Stimuli/Experimental_stims/objects/ronaldo-arthur-vidal-Cdz_lvnl37k-unsplash.jpg,Stimuli/Experimental_stims/outdoor_scenes/yuriy-bogdanov-W51VK3Obcj0-unsplash.jpg,0,NaN,NaN,NaN,unchosen,2000,50,50
30959,0,155,3,3,1,gain3,no_gain2,D,A,33,55,faces,objects,Stimuli/Experimental_stims/faces/leilani-angel-K84vnnzxmTQ-unsplash.jpg,Stimuli/Experimental_stims/objects/jiangxulei1990-eIzzzwtkBjU-unsplash.jpg,0,NaN,NaN,NaN,unchosen,3000,50,50
30959,0,156,3,3,1,gain1,no_gain3,G,K,22,59,outdoor_scenes,objects,Stimuli/Experimental_stims/outdoor_scenes/stephen-leonardi-gyIRjKPXupE-unsplash.jpg,Stimuli/Experimental_stims/objects/ronaldo-arthur-vidal-Cdz_lvnl37k-unsplash.jpg,0,NaN,NaN,NaN,unchosen,2000,50,50
30959,0,157,3,3,0,no_gain1,gain2,J,I,31,38,faces,body_parts,Stimuli/Experimental_stims/faces/jessica-radanavong-mrYkTuAesKE-unsplash.jpg,Stimuli/Experimental_stims/body_parts/engin-akyurt-x_3gyC42btc-unsplash.jpg,0,NaN,NaN,NaN,chosen,2000,50,50
30959,0,158,3,3,0,no_gain2,gain3,A,D,19,56,outdoor_scenes,objects,Stimuli/Experimental_stims/outdoor_scenes/petr-vysohlid-9fqwGqGLUxc-unsplash.jpg,Stimuli/Experimental_stims/objects/jonathan-greenaway-Y4hGgeiFn3s-unsplash.jpg,0,NaN,NaN,NaN,chosen,1000,50,50
30959,0,159,3,3,0,no_gain5,gain2,C,I,45,18,body_parts,outdoor_scenes,Stimuli/Experimental_stims/body_parts/sincerely-media-7TBFwUQA6Xk-unsplash.jpg,Stimuli/Experimental_stims/outdoor_scenes/meng-ji-8BH_M-53CyA-unsplash.jpg,0,NaN,NaN,NaN,unchosen,1500,50,50
30959,0,160,3,3,0,no_gain6,gain1,F,G,43,22,body_parts,outdoor_scenes,Stimuli/Experimental_stims/body_parts/megan-menegay-UojxG_BJxnI-unsplash.jpg,Stimuli/Experimental_stims/outdoor_scenes/stephen-leonardi-gyIRjKPXupE-unsplash.jpg,0,NaN,NaN,NaN,unchosen,1000,50,50
30959,0,161,3,3,0,no_gain4,gain1,E,G,36,22,body_parts,outdoor_scenes,Stimuli/Experimental_stims/body_parts/callum-skelton-3KLMq7y46nA-unsplash.jpg,Stimuli/Experimental_stims/outdoor_scenes/stephen-leonardi-gyIRjKPXupE-unsplash.jpg,0,NaN,NaN,NaN,unchosen,1000,50,50
30959,0,162,3,3,1,gain5,no_gain6,H,F,23,43,outdoor_scenes,body_parts,Stimuli/Experimental_stims/outdoor_scenes/yuriy-bogdanov-W51VK3Obcj0-unsplash.jpg,Stimuli/Experimental_stims/body_parts/megan-menegay-UojxG_BJxnI-unsplash.jpg,0,NaN,NaN,NaN,unchosen,3000,50,50
30959,0,163,3,3,0,no_gain1,gain2,J,I,51,18,objects,outdoor_scenes,Stimuli/Experimental_stims/objects/art-lasovsky-8XddFc6NkBY-unsplash.jpg,Stimuli/Experimental_stims/outdoor_scenes/meng-ji-8BH_M-53CyA-unsplash.jpg,0,NaN,NaN,NaN,unchosen,1000,50,50
30959,0,164,3,3,1,gain2,no_gain6,I,F,38,25,body_parts,faces,Stimuli/Experimental_stims/body_parts/engin-akyurt-x_3gyC42btc-unsplash.jpg,Stimuli/Experimental_stims/faces/aiony-haust-jmATI5Q_YgY-unsplash.jpg,0,NaN,NaN,NaN,chosen,1500,50,50
30959,0,165,3,3,0,no_gain1,gain3,J,D,51,33,objects,faces,Stimuli/Experimental_stims/objects/art-lasovsky-8XddFc6NkBY-unsplash.jpg,Stimuli/Experimental_stims/faces/leilani-angel-K84vnnzxmTQ-unsplash.jpg,0,NaN,NaN,NaN,unchosen,1000,50,50
30959,0,166,3,3,1,gain2,no_gain3,I,K,18,59,outdoor_scenes,objects,Stimuli/Experimental_stims/outdoor_scenes/meng-ji-8BH_M-53CyA-unsplash.jpg,Stimuli/Experimental_stims/objects/ronaldo-arthur-vidal-Cdz_lvnl37k-unsplash.jpg,0,NaN,NaN,NaN,unchosen,1500,50,50
30959,0,167,3,3,0,no_gain4,gain2,E,I,36,18,body_parts,outdoor_scenes,Stimuli/Experimental_stims/body_parts/callum-skelton-3KLMq7y46nA-unsplash.jpg,Stimuli/Experimental_stims/outdoor_scenes/meng-ji-8BH_M-53CyA-unsplash.jpg,0,NaN,NaN,NaN,unchosen,2000,50,50
30959,0,168,3,3,0,no_gain4,gain5,E,H,36,23,body_parts,outdoor_scenes,Stimuli/Experimental_stims/body_parts/callum-skelton-3KLMq7y46nA-unsplash.jpg,Stimuli/Experimental_stims/outdoor_scenes/yuriy-bogdanov-W51VK3Obcj0-unsplash.jpg,0,NaN,NaN,NaN,unchosen,2000,50,50
30959,0,169,3,3,0,no_gain6,gain5,F,H,25,27,faces,faces,Stimuli/Experimental_stims/faces/aiony-haust-jmATI5Q_YgY-unsplash.jpg,Stimuli/Experimental_stims/faces/daniel-rigdon-dXmXKPP2L4E-unsplash.jpg,0,NaN,NaN,NaN,chosen,1000,50,50
30959,0,170,3,3,0,no_gain3,gain3,K,D,37,56,body_parts,objects,Stimuli/Experimental_stims/body_parts/engin-akyurt-Q2rfH3GW39c-unsplash.jpg,Stimuli/Experimental_stims/objects/jonathan-greenaway-Y4hGgeiFn3s-unsplash.jpg,0,NaN,NaN,NaN,chosen,1500,50,50
30959,0,171,3,3,0,no_gain3,gain4,K,L,37,46,body_parts,body_parts,Stimuli/Experimental_stims/body_parts/engin-akyurt-Q2rfH3GW39c-unsplash.jpg,Stimuli/Experimental_stims/body_parts/sincerely-media-VN6DbKajo5s-unsplash.jpg,0,NaN,NaN,NaN,chosen,3500,50,50
30959,0,172,3,3,0,no_gain3,gain3,K,D,59,33,objects,faces,Stimuli/Experimental_stims/objects/ronaldo-arthur-vidal-Cdz_lvnl37k-unsplash.jpg,Stimuli/Experimental_stims/faces/leilani-angel-K84vnnzxmTQ-unsplash.jpg,0,NaN,NaN,NaN,unchosen,1500,50,50
30959,0,173,3,3,1,gain6,no_gain2,B,A,13,19,outdoor_scenes,outdoor_scenes,Stimuli/Experimental_stims/outdoor_scenes/ashim-d-silva-S2Q5mdOrrVc-unsplash.jpg,Stimuli/Experimental_stims/outdoor_scenes/petr-vysohlid-9fqwGqGLUxc-unsplash.jpg,0,NaN,NaN,NaN,chosen,1500,50,50
30959,0,174,3,3,0,no_gain2,gain1,A,G,19,57,outdoor_scenes,objects,Stimuli/Experimental_stims/outdoor_scenes/petr-vysohlid-9fqwGqGLUxc-unsplash.jpg,Stimuli/Experimental_stims/objects/kuiye-chen-NuOGFo4PudE-unsplash.jpg,0,NaN,NaN,NaN,chosen,3000,50,50
30959,0,175,3,3,1,gain4,no_gain1,L,J,32,51,faces,objects,Stimuli/Experimental_stims/faces/justin-chen-J7Cf1Gch49E-unsplash.jpg,Stimuli/Experimental_stims/objects/art-lasovsky-8XddFc6NkBY-unsplash.jpg,0,NaN,NaN,NaN,unchosen,3500,50,50
30959,0,176,3,3,1,gain3,no_gain4,D,E,33,36,faces,body_parts,Stimuli/Experimental_stims/faces/leilani-angel-K84vnnzxmTQ-unsplash.jpg,Stimuli/Experimental_stims/body_parts/callum-skelton-3KLMq7y46nA-unsplash.jpg,0,NaN,NaN,NaN,unchosen,1500,50,50
30959,0,177,3,3,0,no_gain5,gain4,C,L,15,46,outdoor_scenes,body_parts,Stimuli/Experimental_stims/outdoor_scenes/henry-be-NLF6hTe4PAg-unsplash.jpg,Stimuli/Experimental_stims/body_parts/sincerely-media-VN6DbKajo5s-unsplash.jpg,0,NaN,NaN,NaN,chosen,2000,50,50
30959,0,178,3,3,1,gain1,no_gain1,G,J,22,51,outdoor_scenes,objects,Stimuli/Experimental_stims/outdoor_scenes/stephen-leonardi-gyIRjKPXupE-unsplash.jpg,Stimuli/Experimental_stims/objects/art-lasovsky-8XddFc6NkBY-unsplash.jpg,0,NaN,NaN,NaN,unchosen,1000,50,50
30959,0,179,3,3,1,gain4,no_gain1,L,J,46,31,body_parts,faces,Stimuli/Experimental_stims/body_parts/sincerely-media-VN6DbKajo5s-unsplash.jpg,Stimuli/Experimental_stims/faces/jessica-radanavong-mrYkTuAesKE-unsplash.jpg,0,NaN,NaN,NaN,chosen,1500,50,50
30959,0,180,3,3,1,gain1,no_gain5,G,C,57,15,objects,outdoor_scenes,Stimuli/Experimental_stims/objects/kuiye-chen-NuOGFo4PudE-unsplash.jpg,Stimuli/Experimental_stims/outdoor_scenes/henry-be-NLF6hTe4PAg-unsplash.jpg,0,NaN,NaN,NaN,chosen,1000,50,50
30959,0,181,3,3,1,gain6,no_gain5,B,C,13,15,outdoor_scenes,outdoor_scenes,Stimuli/Experimental_stims/outdoor_scenes/ashim-d-silva-S2Q5mdOrrVc-unsplash.jpg,Stimuli/Experimental_stims/outdoor_scenes/henry-be-NLF6hTe4PAg-unsplash.jpg,0,NaN,NaN,NaN,chosen,1000,50,50
30959,0,182,3,3,1,gain6,no_gain5,B,C,29,45,faces,body_parts,Stimuli/Experimental_stims/faces/freddy-kearney-o-ioeoATbIM-unsplash.jpg,Stimuli/Experimental_stims/body_parts/sincerely-media-7TBFwUQA6Xk-unsplash.jpg,0,NaN,NaN,NaN,unchosen,1500,50,50
30959,0,183,3,3,1,gain4,no_gain6,L,F,32,43,faces,body_parts,Stimuli/Experimental_stims/faces/justin-chen-J7Cf1Gch49E-unsplash.jpg,Stimuli/Experimental_stims/body_parts/megan-menegay-UojxG_BJxnI-unsplash.jpg,0,NaN,NaN,NaN,unchosen,1000,50,50
30959,0,184,3,3,0,no_gain3,gain6,K,B,37,13,body_parts,outdoor_scenes,Stimuli/Experimental_stims/body_parts/engin-akyurt-Q2rfH3GW39c-unsplash.jpg,Stimuli/Experimental_stims/outdoor_scenes/ashim-d-silva-S2Q5mdOrrVc-unsplash.jpg,0,NaN,NaN,NaN,chosen,1000,50,50
30959,0,185,3,3,1,gain4,no_gain6,L,F,46,25,body_parts,faces,Stimuli/Experimental_stims/body_parts/sincerely-media-VN6DbKajo5s-unsplash.jpg,Stimuli/Experimental_stims/faces/aiony-haust-jmATI5Q_YgY-unsplash.jpg,0,NaN,NaN,NaN,chosen,1000,50,50
30959,0,186,3,3,1,gain1,no_gain6,G,F,57,25,objects,faces,Stimuli/Experimental_stims/objects/kuiye-chen-NuOGFo4PudE-unsplash.jpg,Stimuli/Experimental_stims/faces/aiony-haust-jmATI5Q_YgY-unsplash.jpg,0,NaN,NaN,NaN,chosen,1000,50,50
30959,0,187,3,3,0,no_gain5,gain5,C,H,15,27,outdoor_scenes,faces,Stimuli/Experimental_stims/outdoor_scenes/henry-be-NLF6hTe4PAg-unsplash.jpg,Stimuli/Experimental_stims/faces/daniel-rigdon-dXmXKPP2L4E-unsplash.jpg,0,NaN,NaN,NaN,chosen,1500,50,50
30959,0,188,3,3,0,no_gain3,gain4,K,L,59,32,objects,faces,Stimuli/Experimental_stims/objects/ronaldo-arthur-vidal-Cdz_lvnl37k-unsplash.jpg,Stimuli/Experimental_stims/faces/justin-chen-J7Cf1Gch49E-unsplash.jpg,0,NaN,NaN,NaN,unchosen,3500,50,50
30959,0,189,3,3,1,gain3,no_gain4,D,E,56,54,objects,objects,Stimuli/Experimental_stims/objects/jonathan-greenaway-Y4hGgeiFn3s-unsplash.jpg,Stimuli/Experimental_stims/objects/jess-bailey-nOeVi8DsN8U-unsplash.jpg,0,NaN,NaN,NaN,chosen,2000,50,50
30959,0,190,3,3,0,no_gain2,gain5,A,H,19,27,outdoor_scenes,faces,Stimuli/Experimental_stims/outdoor_scenes/petr-vysohlid-9fqwGqGLUxc-unsplash.jpg,Stimuli/Experimental_stims/faces/daniel-rigdon-dXmXKPP2L4E-unsplash.jpg,0,NaN,NaN,NaN,chosen,1500,50,50
30959,0,191,3,3,0,no_gain6,gain6,F,B,25,13,faces,outdoor_scenes,Stimuli/Experimental_stims/faces/aiony-haust-jmATI5Q_YgY-unsplash.jpg,Stimuli/Experimental_stims/outdoor_scenes/ashim-d-silva-S2Q5mdOrrVc-unsplash.jpg,0,NaN,NaN,NaN,chosen,1000,50,50
30959,0,192,3,3,1,gain3,no_gain6,D,F,33,43,faces,body_parts,Stimuli/Experimental_stims/faces/leilani-angel-K84vnnzxmTQ-unsplash.jpg,Stimuli/Experimental_stims/body_parts/megan-menegay-UojxG_BJxnI-unsplash.jpg,0,NaN,NaN,NaN,unchosen,3000,50,50
30959,0,193,3,3,0,no_gain5,gain3,C,D,45,33,body_parts,faces,Stimuli/Experimental_stims/body_parts/sincerely-media-7TBFwUQA6Xk-unsplash.jpg,Stimuli/Experimental_stims/faces/leilani-angel-K84vnnzxmTQ-unsplash.jpg,0,NaN,NaN,NaN,unchosen,1500,50,50
30959,0,194,3,3,1,gain4,no_gain4,L,E,46,54,body_parts,objects,Stimuli/Experimental_stims/body_parts/sincerely-media-VN6DbKajo5s-unsplash.jpg,Stimuli/Experimental_stims/objects/jess-bailey-nOeVi8DsN8U-unsplash.jpg,0,NaN,NaN,NaN,chosen,3000,50,50
30959,0,195,3,3,1,gain5,no_gain2,H,A,23,55,outdoor_scenes,objects,Stimuli/Experimental_stims/outdoor_scenes/yuriy-bogdanov-W51VK3Obcj0-unsplash.jpg,Stimuli/Experimental_stims/objects/jiangxulei1990-eIzzzwtkBjU-unsplash.jpg,0,NaN,NaN,NaN,unchosen,1500,50,50
30959,0,196,3,3,0,no_gain4,gain4,E,L,36,32,body_parts,faces,Stimuli/Experimental_stims/body_parts/callum-skelton-3KLMq7y46nA-unsplash.jpg,Stimuli/Experimental_stims/faces/justin-chen-J7Cf1Gch49E-unsplash.jpg,0,NaN,NaN,NaN,unchosen,3000,50,50
30959,0,197,3,3,0,no_gain2,gain6,A,B,55,29,objects,faces,Stimuli/Experimental_stims/objects/jiangxulei1990-eIzzzwtkBjU-unsplash.jpg,Stimuli/Experimental_stims/faces/freddy-kearney-o-ioeoATbIM-unsplash.jpg,0,NaN,NaN,NaN,unchosen,1000,50,50
30959,0,198,3,3,0,no_gain1,gain6,J,B,51,29,objects,faces,Stimuli/Experimental_stims/objects/art-lasovsky-8XddFc6NkBY-unsplash.jpg,Stimuli/Experimental_stims/faces/freddy-kearney-o-ioeoATbIM-unsplash.jpg,0,NaN,NaN,NaN,unchosen,1000,50,50
30959,0,199,3,3,0,no_gain3,gain1,K,G,37,57,body_parts,objects,Stimuli/Experimental_stims/body_parts/engin-akyurt-Q2rfH3GW39c-unsplash.jpg,Stimuli/Experimental_stims/objects/kuiye-chen-NuOGFo4PudE-unsplash.jpg,0,NaN,NaN,NaN,chosen,1500,50,50
30959,0,200,3,3,0,no_gain4,gain2,E,I,54,38,objects,body_parts,Stimuli/Experimental_stims/objects/jess-bailey-nOeVi8DsN8U-unsplash.jpg,Stimuli/Experimental_stims/body_parts/engin-akyurt-x_3gyC42btc-unsplash.jpg,0,NaN,NaN,NaN,chosen,1500,50,50
30959,0,201,3,3,1,gain5,no_gain1,H,J,27,31,faces,faces,Stimuli/Experimental_stims/faces/daniel-rigdon-dXmXKPP2L4E-unsplash.jpg,Stimuli/Experimental_stims/faces/jessica-radanavong-mrYkTuAesKE-unsplash.jpg,0,NaN,NaN,NaN,chosen,3000,50,50
30959,0,202,3,3,1,gain1,no_gain5,G,C,22,45,outdoor_scenes,body_parts,Stimuli/Experimental_stims/outdoor_scenes/stephen-leonardi-gyIRjKPXupE-unsplash.jpg,Stimuli/Experimental_stims/body_parts/sincerely-media-7TBFwUQA6Xk-unsplash.jpg,0,NaN,NaN,NaN,unchosen,1000,50,50
30959,0,203,3,3,1,gain5,no_gain3,H,K,27,37,faces,body_parts,Stimuli/Experimental_stims/faces/daniel-rigdon-dXmXKPP2L4E-unsplash.jpg,Stimuli/Experimental_stims/body_parts/engin-akyurt-Q2rfH3GW39c-unsplash.jpg,0,NaN,NaN,NaN,chosen,1000,50,50
30959,0,204,3,3,0,no_gain1,gain1,J,G,31,57,faces,objects,Stimuli/Experimental_stims/faces/jessica-radanavong-mrYkTuAesKE-unsplash.jpg,Stimuli/Experimental_stims/objects/kuiye-chen-NuOGFo4PudE-unsplash.jpg,0,NaN,NaN,NaN,chosen,1000,50,50
30959,0,205,3,3,1,gain3,no_gain1,D,J,56,31,objects,faces,Stimuli/Experimental_stims/objects/jonathan-greenaway-Y4hGgeiFn3s-unsplash.jpg,Stimuli/Experimental_stims/faces/jessica-radanavong-mrYkTuAesKE-unsplash.jpg,0,NaN,NaN,NaN,chosen,2000,50,50
30959,0,206,3,3,1,gain5,no_gain4,H,E,27,54,faces,objects,Stimuli/Experimental_stims/faces/daniel-rigdon-dXmXKPP2L4E-unsplash.jpg,Stimuli/Experimental_stims/objects/jess-bailey-nOeVi8DsN8U-unsplash.jpg,0,NaN,NaN,NaN,chosen,1500,50,50
30959,0,207,3,3,1,gain2,no_gain2,I,A,18,55,outdoor_scenes,objects,Stimuli/Experimental_stims/outdoor_scenes/meng-ji-8BH_M-53CyA-unsplash.jpg,Stimuli/Experimental_stims/objects/jiangxulei1990-eIzzzwtkBjU-unsplash.jpg,0,NaN,NaN,NaN,unchosen,2000,50,50
30959,0,208,3,3,1,gain4,no_gain2,L,A,46,19,body_parts,outdoor_scenes,Stimuli/Experimental_stims/body_parts/sincerely-media-VN6DbKajo5s-unsplash.jpg,Stimuli/Experimental_stims/outdoor_scenes/petr-vysohlid-9fqwGqGLUxc-unsplash.jpg,0,NaN,NaN,NaN,chosen,1000,50,50
30959,0,209,3,3,1,gain6,no_gain1,B,J,13,31,outdoor_scenes,faces,Stimuli/Experimental_stims/outdoor_scenes/ashim-d-silva-S2Q5mdOrrVc-unsplash.jpg,Stimuli/Experimental_stims/faces/jessica-radanavong-mrYkTuAesKE-unsplash.jpg,0,NaN,NaN,NaN,chosen,1000,50,50
30959,0,210,3,3,0,no_gain5,gain2,C,I,15,38,outdoor_scenes,body_parts,Stimuli/Experimental_stims/outdoor_scenes/henry-be-NLF6hTe4PAg-unsplash.jpg,Stimuli/Experimental_stims/body_parts/engin-akyurt-x_3gyC42btc-unsplash.jpg,0,NaN,NaN,NaN,chosen,3000,50,50
30959,0,211,3,3,0,no_gain6,gain3,F,D,25,56,faces,objects,Stimuli/Experimental_stims/faces/aiony-haust-jmATI5Q_YgY-unsplash.jpg,Stimuli/Experimental_stims/objects/jonathan-greenaway-Y4hGgeiFn3s-unsplash.jpg,0,NaN,NaN,NaN,chosen,2000,50,50
30959,0,212,3,3,0,no_gain4,gain6,E,B,54,13,objects,outdoor_scenes,Stimuli/Experimental_stims/objects/jess-bailey-nOeVi8DsN8U-unsplash.jpg,Stimuli/Experimental_stims/outdoor_scenes/ashim-d-silva-S2Q5mdOrrVc-unsplash.jpg,0,NaN,NaN,NaN,chosen,1000,50,50
30959,0,213,3,3,0,no_gain4,gain6,E,B,36,29,body_parts,faces,Stimuli/Experimental_stims/body_parts/callum-skelton-3KLMq7y46nA-unsplash.jpg,Stimuli/Experimental_stims/faces/freddy-kearney-o-ioeoATbIM-unsplash.jpg,0,NaN,NaN,NaN,unchosen,2000,50,50
30959,0,214,3,3,1,gain6,no_gain6,B,F,29,43,faces,body_parts,Stimuli/Experimental_stims/faces/freddy-kearney-o-ioeoATbIM-unsplash.jpg,Stimuli/Experimental_stims/body_parts/megan-menegay-UojxG_BJxnI-unsplash.jpg,0,NaN,NaN,NaN,unchosen,1000,50,50
30959,0,215,3,3,0,no_gain2,gain2,A,I,19,38,outdoor_scenes,body_parts,Stimuli/Experimental_stims/outdoor_scenes/petr-vysohlid-9fqwGqGLUxc-unsplash.jpg,Stimuli/Experimental_stims/body_parts/engin-akyurt-x_3gyC42btc-unsplash.jpg,0,NaN,NaN,NaN,chosen,1000,50,50
30959,0,216,3,3,0,no_gain6,gain2,F,I,43,18,body_parts,outdoor_scenes,Stimuli/Experimental_stims/body_parts/megan-menegay-UojxG_BJxnI-unsplash.jpg,Stimuli/Experimental_stims/outdoor_scenes/meng-ji-8BH_M-53CyA-unsplash.jpg,0,NaN,NaN,NaN,unchosen,1000,50,50
30959,0,217,3,3,1,gain3,no_gain5,D,C,56,15,objects,outdoor_scenes,Stimuli/Experimental_stims/objects/jonathan-greenaway-Y4hGgeiFn3s-unsplash.jpg,Stimuli/Experimental_stims/outdoor_scenes/henry-be-NLF6hTe4PAg-unsplash.jpg,0,NaN,NaN,NaN,chosen,1500,50,50
30959,0,218,3,3,0,no_gain2,gain4,A,L,55,32,objects,faces,Stimuli/Experimental_stims/objects/jiangxulei1990-eIzzzwtkBjU-unsplash.jpg,Stimuli/Experimental_stims/faces/justin-chen-J7Cf1Gch49E-unsplash.jpg,0,NaN,NaN,NaN,unchosen,1000,50,50
30959,0,219,3,3,0,no_gain5,gain4,C,L,45,32,body_parts,faces,Stimuli/Experimental_stims/body_parts/sincerely-media-7TBFwUQA6Xk-unsplash.jpg,Stimuli/Experimental_stims/faces/justin-chen-J7Cf1Gch49E-unsplash.jpg,0,NaN,NaN,NaN,unchosen,1500,50,50
30959,0,220,3,3,1,gain2,no_gain3,I,K,38,37,body_parts,body_parts,Stimuli/Experimental_stims/body_parts/engin-akyurt-x_3gyC42btc-unsplash.jpg,Stimuli/Experimental_stims/body_parts/engin-akyurt-Q2rfH3GW39c-unsplash.jpg,0,NaN,NaN,NaN,chosen,2000,50,50
30959,0,221,4,4,0,no_gain1,gain2,J,I,51,18,objects,outdoor_scenes,Stimuli/Experimental_stims/objects/art-lasovsky-8XddFc6NkBY-unsplash.jpg,Stimuli/Experimental_stims/outdoor_scenes/meng-ji-8BH_M-53CyA-unsplash.jpg,0,NaN,NaN,NaN,unchosen,1000,50,50
30959,0,222,4,4,0,no_gain1,gain2,J,I,31,38,faces,body_parts,Stimuli/Experimental_stims/faces/jessica-radanavong-mrYkTuAesKE-unsplash.jpg,Stimuli/Experimental_stims/body_parts/engin-akyurt-x_3gyC42btc-unsplash.jpg,0,NaN,NaN,NaN,chosen,1500,50,50
30959,0,223,4,4,0,no_gain3,gain5,K,H,59,23,objects,outdoor_scenes,Stimuli/Experimental_stims/objects/ronaldo-arthur-vidal-Cdz_lvnl37k-unsplash.jpg,Stimuli/Experimental_stims/outdoor_scenes/yuriy-bogdanov-W51VK3Obcj0-unsplash.jpg,0,NaN,NaN,NaN,unchosen,1000,50,50
30959,0,224,4,4,1,gain6,no_gain2,B,A,29,55,faces,objects,Stimuli/Experimental_stims/faces/freddy-kearney-o-ioeoATbIM-unsplash.jpg,Stimuli/Experimental_stims/objects/jiangxulei1990-eIzzzwtkBjU-unsplash.jpg,0,NaN,NaN,NaN,unchosen,1500,50,50
30959,0,225,4,4,0,no_gain1,gain3,J,D,51,33,objects,faces,Stimuli/Experimental_stims/objects/art-lasovsky-8XddFc6NkBY-unsplash.jpg,Stimuli/Experimental_stims/faces/leilani-angel-K84vnnzxmTQ-unsplash.jpg,0,NaN,NaN,NaN,unchosen,3000,50,50
30959,0,226,4,4,0,no_gain6,gain1,F,G,25,57,faces,objects,Stimuli/Experimental_stims/faces/aiony-haust-jmATI5Q_YgY-unsplash.jpg,Stimuli/Experimental_stims/objects/kuiye-chen-NuOGFo4PudE-unsplash.jpg,0,NaN,NaN,NaN,chosen,1500,50,50
30959,0,227,4,4,0,no_gain3,gain3,K,D,59,33,objects,faces,Stimuli/Experimental_stims/objects/ronaldo-arthur-vidal-Cdz_lvnl37k-unsplash.jpg,Stimuli/Experimental_stims/faces/leilani-angel-K84vnnzxmTQ-unsplash.jpg,0,NaN,NaN,NaN,unchosen,2000,50,50
30959,0,228,4,4,0,no_gain4,gain2,E,I,54,38,objects,body_parts,Stimuli/Experimental_stims/objects/jess-bailey-nOeVi8DsN8U-unsplash.jpg,Stimuli/Experimental_stims/body_parts/engin-akyurt-x_3gyC42btc-unsplash.jpg,0,NaN,NaN,NaN,chosen,3500,50,50
30959,0,229,4,4,0,no_gain6,gain1,F,G,43,22,body_parts,outdoor_scenes,Stimuli/Experimental_stims/body_parts/megan-menegay-UojxG_BJxnI-unsplash.jpg,Stimuli/Experimental_stims/outdoor_scenes/stephen-leonardi-gyIRjKPXupE-unsplash.jpg,0,NaN,NaN,NaN,unchosen,1000,50,50
30959,0,230,4,4,0,no_gain2,gain4,A,L,55,32,objects,faces,Stimuli/Experimental_stims/objects/jiangxulei1990-eIzzzwtkBjU-unsplash.jpg,Stimuli/Experimental_stims/faces/justin-chen-J7Cf1Gch49E-unsplash.jpg,0,NaN,NaN,NaN,unchosen,1500,50,50
30959,0,231,4,4,0,no_gain6,gain3,F,D,25,56,faces,objects,Stimuli/Experimental_stims/faces/aiony-haust-jmATI5Q_YgY-unsplash.jpg,Stimuli/Experimental_stims/objects/jonathan-greenaway-Y4hGgeiFn3s-unsplash.jpg,0,NaN,NaN,NaN,chosen,1000,50,50
30959,0,232,4,4,1,gain4,no_gain6,L,F,32,43,faces,body_parts,Stimuli/Experimental_stims/faces/justin-chen-J7Cf1Gch49E-unsplash.jpg,Stimuli/Experimental_stims/body_parts/megan-menegay-UojxG_BJxnI-unsplash.jpg,0,NaN,NaN,NaN,unchosen,2000,50,50
30959,0,233,4,4,0,no_gain2,gain1,A,G,55,22,objects,outdoor_scenes,Stimuli/Experimental_stims/objects/jiangxulei1990-eIzzzwtkBjU-unsplash.jpg,Stimuli/Experimental_stims/outdoor_scenes/stephen-leonardi-gyIRjKPXupE-unsplash.jpg,0,NaN,NaN,NaN,unchosen,1500,50,50
30959,0,234,4,4,1,gain2,no_gain2,I,A,18,55,outdoor_scenes,objects,Stimuli/Experimental_stims/outdoor_scenes/meng-ji-8BH_M-53CyA-unsplash.jpg,Stimuli/Experimental_stims/objects/jiangxulei1990-eIzzzwtkBjU-unsplash.jpg,0,NaN,NaN,NaN,unchosen,1500,50,50
30959,0,235,4,4,0,no_gain5,gain2,C,I,45,18,body_parts,outdoor_scenes,Stimuli/Experimental_stims/body_parts/sincerely-media-7TBFwUQA6Xk-unsplash.jpg,Stimuli/Experimental_stims/outdoor_scenes/meng-ji-8BH_M-53CyA-unsplash.jpg,0,NaN,NaN,NaN,unchosen,3500,50,50
30959,0,236,4,4,0,no_gain3,gain1,K,G,37,57,body_parts,objects,Stimuli/Experimental_stims/body_parts/engin-akyurt-Q2rfH3GW39c-unsplash.jpg,Stimuli/Experimental_stims/objects/kuiye-chen-NuOGFo4PudE-unsplash.jpg,0,NaN,NaN,NaN,chosen,2000,50,50
30959,0,237,4,4,0,no_gain6,gain2,F,I,43,18,body_parts,outdoor_scenes,Stimuli/Experimental_stims/body_parts/megan-menegay-UojxG_BJxnI-unsplash.jpg,Stimuli/Experimental_stims/outdoor_scenes/meng-ji-8BH_M-53CyA-unsplash.jpg,0,NaN,NaN,NaN,unchosen,3500,50,50
30959,0,238,4,4,1,gain1,no_gain1,G,J,22,51,outdoor_scenes,objects,Stimuli/Experimental_stims/outdoor_scenes/stephen-leonardi-gyIRjKPXupE-unsplash.jpg,Stimuli/Experimental_stims/objects/art-lasovsky-8XddFc6NkBY-unsplash.jpg,0,NaN,NaN,NaN,unchosen,1000,50,50
30959,0,239,4,4,1,gain2,no_gain6,I,F,38,25,body_parts,faces,Stimuli/Experimental_stims/body_parts/engin-akyurt-x_3gyC42btc-unsplash.jpg,Stimuli/Experimental_stims/faces/aiony-haust-jmATI5Q_YgY-unsplash.jpg,0,NaN,NaN,NaN,chosen,1000,50,50
30959,0,240,4,4,1,gain2,no_gain5,I,C,38,15,body_parts,outdoor_scenes,Stimuli/Experimental_stims/body_parts/engin-akyurt-x_3gyC42btc-unsplash.jpg,Stimuli/Experimental_stims/outdoor_scenes/henry-be-NLF6hTe4PAg-unsplash.jpg,0,NaN,NaN,NaN,chosen,1000,50,50
30959,0,241,4,4,1,gain3,no_gain2,D,A,56,19,objects,outdoor_scenes,Stimuli/Experimental_stims/objects/jonathan-greenaway-Y4hGgeiFn3s-unsplash.jpg,Stimuli/Experimental_stims/outdoor_scenes/petr-vysohlid-9fqwGqGLUxc-unsplash.jpg,0,NaN,NaN,NaN,chosen,1000,50,50
30959,0,242,4,4,0,no_gain4,gain3,E,D,36,33,body_parts,faces,Stimuli/Experimental_stims/body_parts/callum-skelton-3KLMq7y46nA-unsplash.jpg,Stimuli/Experimental_stims/faces/leilani-angel-K84vnnzxmTQ-unsplash.jpg,0,NaN,NaN,NaN,unchosen,1000,50,50
30959,0,243,4,4,1,gain6,no_gain1,B,J,29,51,faces,objects,Stimuli/Experimental_stims/faces/freddy-kearney-o-ioeoATbIM-unsplash.jpg,Stimuli/Experimental_stims/objects/art-lasovsky-8XddFc6NkBY-unsplash.jpg,0,NaN,NaN,NaN,unchosen,1500,50,50
30959,0,244,4,4,1,gain1,no_gain4,G,E,57,54,objects,objects,Stimuli/Experimental_stims/objects/kuiye-chen-NuOGFo4PudE-unsplash.jpg,Stimuli/Experimental_stims/objects/jess-bailey-nOeVi8DsN8U-unsplash.jpg,0,NaN,NaN,NaN,chosen,3500,50,50
30959,0,245,4,4,0,no_gain5,gain4,C,L,15,46,outdoor_scenes,body_parts,Stimuli/Experimental_stims/outdoor_scenes/henry-be-NLF6hTe4PAg-unsplash.jpg,Stimuli/Experimental_stims/body_parts/sincerely-media-VN6DbKajo5s-unsplash.jpg,0,NaN,NaN,NaN,chosen,3000,50,50
30959,0,246,4,4,1,gain1,no_gain3,G,K,22,59,outdoor_scenes,objects,Stimuli/Experimental_stims/outdoor_scenes/stephen-leonardi-gyIRjKPXupE-unsplash.jpg,Stimuli/Experimental_stims/objects/ronaldo-arthur-vidal-Cdz_lvnl37k-unsplash.jpg,0,NaN,NaN,NaN,unchosen,2000,50,50
30959,0,247,4,4,1,gain5,no_gain5,H,C,23,45,outdoor_scenes,body_parts,Stimuli/Experimental_stims/outdoor_scenes/yuriy-bogdanov-W51VK3Obcj0-unsplash.jpg,Stimuli/Experimental_stims/body_parts/sincerely-media-7TBFwUQA6Xk-unsplash.jpg,0,NaN,NaN,NaN,unchosen,1500,50,50
30959,0,248,4,4,1,gain1,no_gain5,G,C,22,45,outdoor_scenes,body_parts,Stimuli/Experimental_stims/outdoor_scenes/stephen-leonardi-gyIRjKPXupE-unsplash.jpg,Stimuli/Experimental_stims/body_parts/sincerely-media-7TBFwUQA6Xk-unsplash.jpg,0,NaN,NaN,NaN,unchosen,1000,50,50
30959,0,249,4,4,1,gain4,no_gain2,L,A,46,19,body_parts,outdoor_scenes,Stimuli/Experimental_stims/body_parts/sincerely-media-VN6DbKajo5s-unsplash.jpg,Stimuli/Experimental_stims/outdoor_scenes/petr-vysohlid-9fqwGqGLUxc-unsplash.jpg,0,NaN,NaN,NaN,chosen,3000,50,50
30959,0,250,4,4,0,no_gain4,gain6,E,B,54,13,objects,outdoor_scenes,Stimuli/Experimental_stims/objects/jess-bailey-nOeVi8DsN8U-unsplash.jpg,Stimuli/Experimental_stims/outdoor_scenes/ashim-d-silva-S2Q5mdOrrVc-unsplash.jpg,0,NaN,NaN,NaN,chosen,1500,50,50
30959,0,251,4,4,0,no_gain4,gain6,E,B,36,29,body_parts,faces,Stimuli/Experimental_stims/body_parts/callum-skelton-3KLMq7y46nA-unsplash.jpg,Stimuli/Experimental_stims/faces/freddy-kearney-o-ioeoATbIM-unsplash.jpg,0,NaN,NaN,NaN,unchosen,1500,50,50
30959,0,252,4,4,1,gain4,no_gain3,L,K,32,59,faces,objects,Stimuli/Experimental_stims/faces/justin-chen-J7Cf1Gch49E-unsplash.jpg,Stimuli/Experimental_stims/objects/ronaldo-arthur-vidal-Cdz_lvnl37k-unsplash.jpg,0,NaN,NaN,NaN,unchosen,2000,50,50
30959,0,253,4,4,0,no_gain3,gain6,K,B,37,13,body_parts,outdoor_scenes,Stimuli/Experimental_stims/body_parts/engin-akyurt-Q2rfH3GW39c-unsplash.jpg,Stimuli/Experimental_stims/outdoor_scenes/ashim-d-silva-S2Q5mdOrrVc-unsplash.jpg,0,NaN,NaN,NaN,chosen,2000,50,50
30959,0,254,4,4,0,no_gain4,gain1,E,G,36,22,body_parts,outdoor_scenes,Stimuli/Experimental_stims/body_parts/callum-skelton-3KLMq7y46nA-unsplash.jpg,Stimuli/Experimental_stims/outdoor_scenes/stephen-leonardi-gyIRjKPXupE-unsplash.jpg,0,NaN,NaN,NaN,unchosen,1000,50,50
30959,0,255,4,4,0,no_gain3,gain2,K,I,37,38,body_parts,body_parts,Stimuli/Experimental_stims/body_parts/engin-akyurt-Q2rfH3GW39c-unsplash.jpg,Stimuli/Experimental_stims/body_parts/engin-akyurt-x_3gyC42btc-unsplash.jpg,0,NaN,NaN,NaN,chosen,1000,50,50
30959,0,256,4,4,0,no_gain4,gain5,E,H,36,23,body_parts,outdoor_scenes,Stimuli/Experimental_stims/body_parts/callum-skelton-3KLMq7y46nA-unsplash.jpg,Stimuli/Experimental_stims/outdoor_scenes/yuriy-bogdanov-W51VK3Obcj0-unsplash.jpg,0,NaN,NaN,NaN,unchosen,1000,50,50
30959,0,257,4,4,1,gain3,no_gain5,D,C,56,15,objects,outdoor_scenes,Stimuli/Experimental_stims/objects/jonathan-greenaway-Y4hGgeiFn3s-unsplash.jpg,Stimuli/Experimental_stims/outdoor_scenes/henry-be-NLF6hTe4PAg-unsplash.jpg,0,NaN,NaN,NaN,chosen,1000,50,50
30959,0,258,4,4,1,gain5,no_gain1,H,J,23,51,outdoor_scenes,objects,Stimuli/Experimental_stims/outdoor_scenes/yuriy-bogdanov-W51VK3Obcj0-unsplash.jpg,Stimuli/Experimental_stims/objects/art-lasovsky-8XddFc6NkBY-unsplash.jpg,0,NaN,NaN,NaN,unchosen,2000,50,50
30959,0,259,4,4,1,gain5,no_gain3,H,K,27,37,faces,body_parts,Stimuli/Experimental_stims/faces/daniel-rigdon-dXmXKPP2L4E-unsplash.jpg,Stimuli/Experimental_stims/body_parts/engin-akyurt-Q2rfH3GW39c-unsplash.jpg,0,NaN,NaN,NaN,chosen,1000,50,50
30959,0,260,4,4,0,no_gain2,gain1,A,G,19,57,outdoor_scenes,objects,Stimuli/Experimental_stims/outdoor_scenes/petr-vysohlid-9fqwGqGLUxc-unsplash.jpg,Stimuli/Experimental_stims/objects/kuiye-chen-NuOGFo4PudE-unsplash.jpg,0,NaN,NaN,NaN,chosen,1000,50,50
30959,0,261,4,4,1,gain3,no_gain1,D,J,56,31,objects,faces,Stimuli/Experimental_stims/objects/jonathan-greenaway-Y4hGgeiFn3s-unsplash.jpg,Stimuli/Experimental_stims/faces/jessica-radanavong-mrYkTuAesKE-unsplash.jpg,0,NaN,NaN,NaN,chosen,1500,50,50
30959,0,262,4,4,1,gain6,no_gain5,B,C,29,45,faces,body_parts,Stimuli/Experimental_stims/faces/freddy-kearney-o-ioeoATbIM-unsplash.jpg,Stimuli/Experimental_stims/body_parts/sincerely-media-7TBFwUQA6Xk-unsplash.jpg,0,NaN,NaN,NaN,unchosen,3000,50,50
30959,0,263,4,4,0,no_gain2,gain5,A,H,19,27,outdoor_scenes,faces,Stimuli/Experimental_stims/outdoor_scenes/petr-vysohlid-9fqwGqGLUxc-unsplash.jpg,Stimuli/Experimental_stims/faces/daniel-rigdon-dXmXKPP2L4E-unsplash.jpg,0,NaN,NaN,NaN,chosen,1500,50,50
30959,0,264,4,4,0,no_gain4,gain3,E,D,54,56,objects,objects,Stimuli/Experimental_stims/objects/jess-bailey-nOeVi8DsN8U-unsplash.jpg,Stimuli/Experimental_stims/objects/jonathan-greenaway-Y4hGgeiFn3s-unsplash.jpg,0,NaN,NaN,NaN,chosen,1500,50,50
30959,0,265,4,4,1,gain4,no_gain4,L,E,32,36,faces,body_parts,Stimuli/Experimental_stims/faces/justin-chen-J7Cf1Gch49E-unsplash.jpg,Stimuli/Experimental_stims/body_parts/callum-skelton-3KLMq7y46nA-unsplash.jpg,0,NaN,NaN,NaN,unchosen,3000,50,50
30959,0,266,4,4,1,gain6,no_gain5,B,C,13,15,outdoor_scenes,outdoor_scenes,Stimuli/Experimental_stims/outdoor_scenes/ashim-d-silva-S2Q5mdOrrVc-unsplash.jpg,Stimuli/Experimental_stims/outdoor_scenes/henry-be-NLF6hTe4PAg-unsplash.jpg,0,NaN,NaN,NaN,chosen,2000,50,50
30959,0,267,4,4,1,gain6,no_gain6,B,F,13,25,outdoor_scenes,faces,Stimuli/Experimental_stims/outdoor_scenes/ashim-d-silva-S2Q5mdOrrVc-unsplash.jpg,Stimuli/Experimental_stims/faces/aiony-haust-jmATI5Q_YgY-unsplash.jpg,0,NaN,NaN,NaN,chosen,1000,50,50
30959,0,268,4,4,1,gain4,no_gain4,L,E,46,54,body_parts,objects,Stimuli/Experimental_stims/body_parts/sincerely-media-VN6DbKajo5s-unsplash.jpg,Stimuli/Experimental_stims/objects/jess-bailey-nOeVi8DsN8U-unsplash.jpg,0,NaN,NaN,NaN,chosen,1000,50,50
30959,0,269,4,4,1,gain5,no_gain5,H,C,27,15,faces,outdoor_scenes,Stimuli/Experimental_stims/faces/daniel-rigdon-dXmXKPP2L4E-unsplash.jpg,Stimuli/Experimental_stims/outdoor_scenes/henry-be-NLF6hTe4PAg-unsplash.jpg,0,NaN,NaN,NaN,chosen,1500,50,50
30959,0,270,4,4,0,no_gain1,gain1,J,G,31,57,faces,objects,Stimuli/Experimental_stims/faces/jessica-radanavong-mrYkTuAesKE-unsplash.jpg,Stimuli/Experimental_stims/objects/kuiye-chen-NuOGFo4PudE-unsplash.jpg,0,NaN,NaN,NaN,chosen,2000,50,50
30959,0,271,4,4,0,no_gain1,gain4,J,L,51,32,objects,faces,Stimuli/Experimental_stims/objects/art-lasovsky-8XddFc6NkBY-unsplash.jpg,Stimuli/Experimental_stims/faces/justin-chen-J7Cf1Gch49E-unsplash.jpg,0,NaN,NaN,NaN,unchosen,2000,50,50
30959,0,272,4,4,1,gain4,no_gain3,L,K,46,37,body_parts,body_parts,Stimuli/Experimental_stims/body_parts/sincerely-media-VN6DbKajo5s-unsplash.jpg,Stimuli/Experimental_stims/body_parts/engin-akyurt-Q2rfH3GW39c-unsplash.jpg,0,NaN,NaN,NaN,chosen,1000,50,50
30959,0,273,4,4,0,no_gain1,gain5,J,H,31,27,faces,faces,Stimuli/Experimental_stims/faces/jessica-radanavong-mrYkTuAesKE-unsplash.jpg,Stimuli/Experimental_stims/faces/daniel-rigdon-dXmXKPP2L4E-unsplash.jpg,0,NaN,NaN,NaN,chosen,1000,50,50
30959,0,274,4,4,0,no_gain6,gain5,F,H,43,23,body_parts,outdoor_scenes,Stimuli/Experimental_stims/body_parts/megan-menegay-UojxG_BJxnI-unsplash.jpg,Stimuli/Experimental_stims/outdoor_scenes/yuriy-bogdanov-W51VK3Obcj0-unsplash.jpg,0,NaN,NaN,NaN,unchosen,1000,50,50
30959,0,275,4,4,1,gain6,no_gain3,B,K,29,59,faces,objects,Stimuli/Experimental_stims/faces/freddy-kearney-o-ioeoATbIM-unsplash.jpg,Stimuli/Experimental_stims/objects/ronaldo-arthur-vidal-Cdz_lvnl37k-unsplash.jpg,0,NaN,NaN,NaN,unchosen,1500,50,50
30959,0,276,4,4,1,gain2,no_gain3,I,K,18,59,outdoor_scenes,objects,Stimuli/Experimental_stims/outdoor_scenes/meng-ji-8BH_M-53CyA-unsplash.jpg,Stimuli/Experimental_stims/objects/ronaldo-arthur-vidal-Cdz_lvnl37k-unsplash.jpg,0,NaN,NaN,NaN,unchosen,1000,50,50
30959,0,277,4,4,1,gain5,no_gain6,H,F,27,25,faces,faces,Stimuli/Experimental_stims/faces/daniel-rigdon-dXmXKPP2L4E-unsplash.jpg,Stimuli/Experimental_stims/faces/aiony-haust-jmATI5Q_YgY-unsplash.jpg,0,NaN,NaN,NaN,chosen,2000,50,50
30959,0,278,4,4,1,gain3,no_gain5,D,C,33,45,faces,body_parts,Stimuli/Experimental_stims/faces/leilani-angel-K84vnnzxmTQ-unsplash.jpg,Stimuli/Experimental_stims/body_parts/sincerely-media-7TBFwUQA6Xk-unsplash.jpg,0,NaN,NaN,NaN,unchosen,1000,50,50
30959,0,279,4,4,1,gain5,no_gain2,H,A,23,55,outdoor_scenes,objects,Stimuli/Experimental_stims/outdoor_scenes/yuriy-bogdanov-W51VK3Obcj0-unsplash.jpg,Stimuli/Experimental_stims/objects/jiangxulei1990-eIzzzwtkBjU-unsplash.jpg,0,NaN,NaN,NaN,unchosen,1500,50,50
30959,0,280,4,4,0,no_gain5,gain1,C,G,15,57,outdoor_scenes,objects,Stimuli/Experimental_stims/outdoor_scenes/henry-be-NLF6hTe4PAg-unsplash.jpg,Stimuli/Experimental_stims/objects/kuiye-chen-NuOGFo4PudE-unsplash.jpg,0,NaN,NaN,NaN,chosen,1500,50,50
30959,0,281,4,4,0,no_gain3,gain3,K,D,37,56,body_parts,objects,Stimuli/Experimental_stims/body_parts/engin-akyurt-Q2rfH3GW39c-unsplash.jpg,Stimuli/Experimental_stims/objects/jonathan-greenaway-Y4hGgeiFn3s-unsplash.jpg,0,NaN,NaN,NaN,chosen,2000,50,50
30959,0,282,4,4,1,gain6,no_gain1,B,J,13,31,outdoor_scenes,faces,Stimuli/Experimental_stims/outdoor_scenes/ashim-d-silva-S2Q5mdOrrVc-unsplash.jpg,Stimuli/Experimental_stims/faces/jessica-radanavong-mrYkTuAesKE-unsplash.jpg,0,NaN,NaN,NaN,chosen,3000,50,50
30959,0,283,4,4,0,no_gain4,gain2,E,I,36,18,body_parts,outdoor_scenes,Stimuli/Experimental_stims/body_parts/callum-skelton-3KLMq7y46nA-unsplash.jpg,Stimuli/Experimental_stims/outdoor_scenes/meng-ji-8BH_M-53CyA-unsplash.jpg,0,NaN,NaN,NaN,unchosen,1000,50,50
30959,0,284,4,4,0,no_gain2,gain2,A,I,19,38,outdoor_scenes,body_parts,Stimuli/Experimental_stims/outdoor_scenes/petr-vysohlid-9fqwGqGLUxc-unsplash.jpg,Stimuli/Experimental_stims/body_parts/engin-akyurt-x_3gyC42btc-unsplash.jpg,0,NaN,NaN,NaN,chosen,1000,50,50
30959,0,285,4,4,1,gain5,no_gain4,H,E,27,54,faces,objects,Stimuli/Experimental_stims/faces/daniel-rigdon-dXmXKPP2L4E-unsplash.jpg,Stimuli/Experimental_stims/objects/jess-bailey-nOeVi8DsN8U-unsplash.jpg,0,NaN,NaN,NaN,chosen,3000,50,50
30959,0,286,4,4,0,no_gain5,gain4,C,L,45,32,body_parts,faces,Stimuli/Experimental_stims/body_parts/sincerely-media-7TBFwUQA6Xk-unsplash.jpg,Stimuli/Experimental_stims/faces/justin-chen-J7Cf1Gch49E-unsplash.jpg,0,NaN,NaN,NaN,unchosen,1000,50,50
30959,0,287,4,4,0,no_gain2,gain6,A,B,19,13,outdoor_scenes,outdoor_scenes,Stimuli/Experimental_stims/outdoor_scenes/petr-vysohlid-9fqwGqGLUxc-unsplash.jpg,Stimuli/Experimental_stims/outdoor_scenes/ashim-d-silva-S2Q5mdOrrVc-unsplash.jpg,0,NaN,NaN,NaN,chosen,1500,50,50
30959,0,288,4,4,1,gain4,no_gain1,L,J,46,31,body_parts,faces,Stimuli/Experimental_stims/body_parts/sincerely-media-VN6DbKajo5s-unsplash.jpg,Stimuli/Experimental_stims/faces/jessica-radanavong-mrYkTuAesKE-unsplash.jpg,0,NaN,NaN,NaN,chosen,1000,50,50
30959,0,289,4,4,1,gain4,no_gain6,L,F,46,25,body_parts,faces,Stimuli/Experimental_stims/body_parts/sincerely-media-VN6DbKajo5s-unsplash.jpg,Stimuli/Experimental_stims/faces/aiony-haust-jmATI5Q_YgY-unsplash.jpg,0,NaN,NaN,NaN,chosen,1500,50,50
30959,0,290,4,4,1,gain6,no_gain6,B,F,29,43,faces,body_parts,Stimuli/Experimental_stims/faces/freddy-kearney-o-ioeoATbIM-unsplash.jpg,Stimuli/Experimental_stims/body_parts/megan-menegay-UojxG_BJxnI-unsplash.jpg,0,NaN,NaN,NaN,unchosen,3000,50,50
30959,0,291,4,4,0,no_gain2,gain3,A,D,55,33,objects,faces,Stimuli/Experimental_stims/objects/jiangxulei1990-eIzzzwtkBjU-unsplash.jpg,Stimuli/Experimental_stims/faces/leilani-angel-K84vnnzxmTQ-unsplash.jpg,0,NaN,NaN,NaN,unchosen,1500,50,50
30959,0,292,4,4,1,gain3,no_gain6,D,F,33,43,faces,body_parts,Stimuli/Experimental_stims/faces/leilani-angel-K84vnnzxmTQ-unsplash.jpg,Stimuli/Experimental_stims/body_parts/megan-menegay-UojxG_BJxnI-unsplash.jpg,0,NaN,NaN,NaN,unchosen,1000,50,50