PID,practice,trial,block,run,gain_left,left_item_id,right_item_id,left_pair_id,right_pair_id,left_stimulus,right_stimulus,left_category,right_category,left_path,right_path,no_response,left_chosen,rt,higher_outcome_chosen,choice_type,iti
1234,1,1,0,0,NaN,NaN,NaN,NA,NA,NA,NA,NA,NA,Stimuli/Practice_stims/Final_decisions/debby-hudson-FmCSSSGge-0-unsplash.jpg,Stimuli/Practice_stims/Final_decisions/yassine-khalfalli-adsQ9d_Cx0c-unsplash.jpg,0,NaN,NaN,NaN,NaN,3000
1234,1,2,0,0,NaN,NaN,NaN,NA,NA,NA,NA,NA,NA,Stimuli/Practice_stims/Final_decisions/florian-wehde-iVW7mZPwd4g-unsplash.jpg,Stimuli/Practice_stims/Final_decisions/patrick-perkins-3wylDrjxH-E-unsplash.jpg,0,NaN,NaN,NaN,NaN,1500
1234,1,3,0,0,NaN,NaN,NaN,NA,NA,NA,NA,NA,NA,Stimuli/Practice_stims/Final_decisions/debby-hudson-FmCSSSGge-0-unsplash.jpg,Stimuli/Practice_stims/Final_decisions/florian-wehde-iVW7mZPwd4g-unsplash.jpg,0,NaN,NaN,NaN,NaN,2000
1234,1,4,0,0,NaN,NaN,NaN,NA,NA,NA,NA,NA,NA,Stimuli/Practice_stims/Final_decisions/yassine-khalfalli-adsQ9d_Cx0c-unsplash.jpg,Stimuli/Practice_stims/Final_decisions/debby-hudson-FmCSSSGge-0-unsplash.jpg,0,NaN,NaN,NaN,NaN,1000
1234,0,5,1,1,0,no_gain2,gain1,E,B,41,29,body_parts,faces,Stimuli/Experimental_stims/body_parts/lucaxx-freire-CacZwMexYdk-unsplash.jpg,Stimuli/Experimental_stims/faces/freddy-kearney-o-ioeoATbIM-unsplash.jpg,0,NaN,NaN,NaN,unchosen,3000,50,50
1234,0,6,1,1,0,no_gain4,gain3,J,H,26,25,faces,faces,Stimuli/Experimental_stims/faces/art-hauntington-jzY0KRJopEI-unsplash.jpg,Stimuli/Experimental_stims/faces/aiony-haust-jmATI5Q_YgY-unsplash.jpg,0,NaN,NaN,NaN,chosen,1500,50,50
1234,0,7,1,1,0,no_gain5,gain3,F,H,30,25,faces,faces,Stimuli/Experimental_stims/faces/good-faces-xmSWVeGEnJw-unsplash.jpg,Stimuli/Experimental_stims/faces/aiony-haust-jmATI5Q_YgY-unsplash.jpg,0,NaN,NaN,NaN,chosen,1000,50,50
1234,0,8,1,1,1,gain4,no_gain6,L,K,39,37,body_parts,body_parts,Stimuli/Experimental_stims/body_parts/jonathan-borba-hTwH8QFkPMs-unsplash.jpg,Stimuli/Experimental_stims/body_parts/engin-akyurt-Q2rfH3GW39c-unsplash.jpg,0,NaN,NaN,NaN,chosen,1500,50,50
1234,0,9,1,1,1,gain4,no_gain3,L,C,33,45,faces,body_parts,Stimuli/Experimental_stims/faces/leilani-angel-K84vnnzxmTQ-unsplash.jpg,Stimuli/Experimental_stims/body_parts/sincerely-media-7TBFwUQA6Xk-unsplash.jpg,0,NaN,NaN,NaN,unchosen,1000,50,50
1234,0,10,1,1,1,gain6,no_gain3,I,C,15,45,outdoor_scenes,body_parts,Stimuli/Experimental_stims/outdoor_scenes/henry-be-NLF6hTe4PAg-unsplash.jpg,Stimuli/Experimental_stims/body_parts/sincerely-media-7TBFwUQA6Xk-unsplash.jpg,0,NaN,NaN,NaN,unchosen,1000,50,50
1234,0,11,1,1,0,no_gain2,gain6,E,I,48,40,objects,body_parts,Stimuli/Experimental_stims/objects/alexander-andrews-JYGnB9gTCls-unsplash.jpg,Stimuli/Experimental_stims/body_parts/klara-kulikova-TcUfF24fUMY-unsplash.jpg,0,NaN,NaN,NaN,chosen,1500,50,50
1234,0,12,1,1,0,no_gain3,gain3,C,H,45,12,body_parts,outdoor_scenes,Stimuli/Experimental_stims/body_parts/sincerely-media-7TBFwUQA6Xk-unsplash.jpg,Stimuli/Experimental_stims/outdoor_scenes/aleksandra-boguslawska-MS7KD9Ti7FQ-unsplash.jpg,0,NaN,NaN,NaN,unchosen,3000,50,50
1234,0,13,1,1,1,gain1,no_gain5,B,F,22,30,outdoor_scenes,faces,Stimuli/Experimental_stims/outdoor_scenes/stephen-leonardi-gyIRjKPXupE-unsplash.jpg,Stimuli/Experimental_stims/faces/good-faces-xmSWVeGEnJw-unsplash.jpg,0,NaN,NaN,NaN,chosen,1000,50,50
1234,0,14,1,1,1,gain5,no_gain4,D,J,53,26,objects,faces,Stimuli/Experimental_stims/objects/insung-yoon-w2JtIQQXoRU-unsplash.jpg,Stimuli/Experimental_stims/faces/art-hauntington-jzY0KRJopEI-unsplash.jpg,0,NaN,NaN,NaN,chosen,3000,50,50
1234,0,15,1,1,0,no_gain1,gain6,A,I,18,40,outdoor_scenes,body_parts,Stimuli/Experimental_stims/outdoor_scenes/meng-ji-8BH_M-53CyA-unsplash.jpg,Stimuli/Experimental_stims/body_parts/klara-kulikova-TcUfF24fUMY-unsplash.jpg,0,NaN,NaN,NaN,chosen,1000,50,50
1234,0,16,1,1,1,gain5,no_gain5,D,F,53,30,objects,faces,Stimuli/Experimental_stims/objects/insung-yoon-w2JtIQQXoRU-unsplash.jpg,Stimuli/Experimental_stims/faces/good-faces-xmSWVeGEnJw-unsplash.jpg,0,NaN,NaN,NaN,chosen,1000,50,50
1234,0,17,1,1,1,gain2,no_gain2,G,E,17,41,outdoor_scenes,body_parts,Stimuli/Experimental_stims/outdoor_scenes/jeff-king-bJHWJeiHfHc-unsplash.jpg,Stimuli/Experimental_stims/body_parts/lucaxx-freire-CacZwMexYdk-unsplash.jpg,0,NaN,NaN,NaN,unchosen,1000,50,50
1234,0,18,1,1,1,gain4,no_gain2,L,E,33,41,faces,body_parts,Stimuli/Experimental_stims/faces/leilani-angel-K84vnnzxmTQ-unsplash.jpg,Stimuli/Experimental_stims/body_parts/lucaxx-freire-CacZwMexYdk-unsplash.jpg,0,NaN,NaN,NaN,unchosen,1000,50,50
1234,0,19,1,1,1,gain6,no_gain1,I,A,15,50,outdoor_scenes,objects,Stimuli/Experimental_stims/outdoor_scenes/henry-be-NLF6hTe4PAg-unsplash.jpg,Stimuli/Experimental_stims/objects/andrew-petrov-TVJqDat4MAw-unsplash.jpg,0,NaN,NaN,NaN,unchosen,1000,50,50
1234,0,20,1,1,1,gain4,no_gain4,L,J,39,26,body_parts,faces,Stimuli/Experimental_stims/body_parts/jonathan-borba-hTwH8QFkPMs-unsplash.jpg,Stimuli/Experimental_stims/faces/art-hauntington-jzY0KRJopEI-unsplash.jpg,0,NaN,NaN,NaN,chosen,1000,50,50
1234,0,21,1,1,1,gain4,no_gain5,L,F,39,30,body_parts,faces,Stimuli/Experimental_stims/body_parts/jonathan-borba-hTwH8QFkPMs-unsplash.jpg,Stimuli/Experimental_stims/faces/good-faces-xmSWVeGEnJw-unsplash.jpg,0,NaN,NaN,NaN,chosen,2000,50,50
1234,0,22,1,1,0,no_gain6,gain4,K,L,55,33,objects,faces,Stimuli/Experimental_stims/objects/jiangxulei1990-eIzzzwtkBjU-unsplash.jpg,Stimuli/Experimental_stims/faces/leilani-angel-K84vnnzxmTQ-unsplash.jpg,0,NaN,NaN,NaN,unchosen,3500,50,50
1234,0,23,1,1,1,gain6,no_gain4,I,J,40,26,body_parts,faces,Stimuli/Experimental_stims/body_parts/klara-kulikova-TcUfF24fUMY-unsplash.jpg,Stimuli/Experimental_stims/faces/art-hauntington-jzY0KRJopEI-unsplash.jpg,0,NaN,NaN,NaN,chosen,1000,50,50
1234,0,24,1,1,0,no_gain4,gain1,J,B,26,22,faces,outdoor_scenes,Stimuli/Experimental_stims/faces/art-hauntington-jzY0KRJopEI-unsplash.jpg,Stimuli/Experimental_stims/outdoor_scenes/stephen-leonardi-gyIRjKPXupE-unsplash.jpg,0,NaN,NaN,NaN,chosen,1000,50,50
1234,0,25,1,1,1,gain1,no_gain5,B,F,29,36,faces,body_parts,Stimuli/Experimental_stims/faces/freddy-kearney-o-ioeoATbIM-unsplash.jpg,Stimuli/Experimental_stims/body_parts/callum-skelton-3KLMq7y46nA-unsplash.jpg,0,NaN,NaN,NaN,unchosen,2000,50,50
1234,0,26,1,1,0,no_gain4,gain2,J,G,54,17,objects,outdoor_scenes,Stimuli/Experimental_stims/objects/jess-bailey-nOeVi8DsN8U-unsplash.jpg,Stimuli/Experimental_stims/outdoor_scenes/jeff-king-bJHWJeiHfHc-unsplash.jpg,0,NaN,NaN,NaN,unchosen,2000,50,50
1234,0,27,1,1,0,no_gain1,gain5,A,D,18,53,outdoor_scenes,objects,Stimuli/Experimental_stims/outdoor_scenes/meng-ji-8BH_M-53CyA-unsplash.jpg,Stimuli/Experimental_stims/objects/insung-yoon-w2JtIQQXoRU-unsplash.jpg,0,NaN,NaN,NaN,chosen,1500,50,50
1234,0,28,1,1,0,no_gain6,gain5,K,D,37,53,body_parts,objects,Stimuli/Experimental_stims/body_parts/engin-akyurt-Q2rfH3GW39c-unsplash.jpg,Stimuli/Experimental_stims/objects/insung-yoon-w2JtIQQXoRU-unsplash.jpg,0,NaN,NaN,NaN,chosen,1500,50,50
1234,0,29,1,1,0,no_gain1,gain2,A,G,50,17,objects,outdoor_scenes,Stimuli/Experimental_stims/objects/andrew-petrov-TVJqDat4MAw-unsplash.jpg,Stimuli/Experimental_stims/outdoor_scenes/jeff-king-bJHWJeiHfHc-unsplash.jpg,0,NaN,NaN,NaN,unchosen,1500,50,50
1234,0,30,1,1,0,no_gain2,gain3,E,H,48,25,objects,faces,Stimuli/Experimental_stims/objects/alexander-andrews-JYGnB9gTCls-unsplash.jpg,Stimuli/Experimental_stims/faces/aiony-haust-jmATI5Q_YgY-unsplash.jpg,0,NaN,NaN,NaN,chosen,1500,50,50
1234,0,31,1,1,0,no_gain6,gain5,K,D,55,34,objects,faces,Stimuli/Experimental_stims/objects/jiangxulei1990-eIzzzwtkBjU-unsplash.jpg,Stimuli/Experimental_stims/faces/olena-sergienko-0TSd6uCKTKc-unsplash.jpg,0,NaN,NaN,NaN,unchosen,1500,50,50
1234,0,32,1,1,0,no_gain6,gain3,K,H,37,25,body_parts,faces,Stimuli/Experimental_stims/body_parts/engin-akyurt-Q2rfH3GW39c-unsplash.jpg,Stimuli/Experimental_stims/faces/aiony-haust-jmATI5Q_YgY-unsplash.jpg,0,NaN,NaN,NaN,chosen,2000,50,50
1234,0,33,1,1,1,gain3,no_gain4,H,J,12,54,outdoor_scenes,objects,Stimuli/Experimental_stims/outdoor_scenes/aleksandra-boguslawska-MS7KD9Ti7FQ-unsplash.jpg,Stimuli/Experimental_stims/objects/jess-bailey-nOeVi8DsN8U-unsplash.jpg,0,NaN,NaN,NaN,unchosen,1000,50,50
1234,0,34,1,1,0,no_gain2,gain4,E,L,48,39,objects,body_parts,Stimuli/Experimental_stims/objects/alexander-andrews-JYGnB9gTCls-unsplash.jpg,Stimuli/Experimental_stims/body_parts/jonathan-borba-hTwH8QFkPMs-unsplash.jpg,0,NaN,NaN,NaN,chosen,1000,50,50
1234,0,35,1,1,0,no_gain3,gain5,C,D,45,34,body_parts,faces,Stimuli/Experimental_stims/body_parts/sincerely-media-7TBFwUQA6Xk-unsplash.jpg,Stimuli/Experimental_stims/faces/olena-sergienko-0TSd6uCKTKc-unsplash.jpg,0,NaN,NaN,NaN,unchosen,1500,50,50
1234,0,36,1,1,1,gain2,no_gain4,G,J,58,26,objects,faces,Stimuli/Experimental_stims/objects/mockup-graphics-PNsj6RiHAF4-unsplash.jpg,Stimuli/Experimental_stims/faces/art-hauntington-jzY0KRJopEI-unsplash.jpg,0,NaN,NaN,NaN,chosen,1000,50,50
1234,0,37,1,1,0,no_gain3,gain1,C,B,45,29,body_parts,faces,Stimuli/Experimental_stims/body_parts/sincerely-media-7TBFwUQA6Xk-unsplash.jpg,Stimuli/Experimental_stims/faces/freddy-kearney-o-ioeoATbIM-unsplash.jpg,0,NaN,NaN,NaN,unchosen,2000,50,50
1234,0,38,1,1,1,gain5,no_gain1,D,A,34,50,faces,objects,Stimuli/Experimental_stims/faces/olena-sergienko-0TSd6uCKTKc-unsplash.jpg,Stimuli/Experimental_stims/objects/andrew-petrov-TVJqDat4MAw-unsplash.jpg,0,NaN,NaN,NaN,unchosen,1500,50,50
1234,0,39,1,1,1,gain3,no_gain5,H,F,12,36,outdoor_scenes,body_parts,Stimuli/Experimental_stims/outdoor_scenes/aleksandra-boguslawska-MS7KD9Ti7FQ-unsplash.jpg,Stimuli/Experimental_stims/body_parts/callum-skelton-3KLMq7y46nA-unsplash.jpg,0,NaN,NaN,NaN,unchosen,3000,50,50
1234,0,40,1,1,1,gain1,no_gain6,B,K,29,55,faces,objects,Stimuli/Experimental_stims/faces/freddy-kearney-o-ioeoATbIM-unsplash.jpg,Stimuli/Experimental_stims/objects/jiangxulei1990-eIzzzwtkBjU-unsplash.jpg,0,NaN,NaN,NaN,unchosen,1500,50,50
1234,0,41,1,1,0,no_gain5,gain5,F,D,36,34,body_parts,faces,Stimuli/Experimental_stims/body_parts/callum-skelton-3KLMq7y46nA-unsplash.jpg,Stimuli/Experimental_stims/faces/olena-sergienko-0TSd6uCKTKc-unsplash.jpg,0,NaN,NaN,NaN,unchosen,1000,50,50
1234,0,42,1,1,0,no_gain1,gain4,A,L,18,39,outdoor_scenes,body_parts,Stimuli/Experimental_stims/outdoor_scenes/meng-ji-8BH_M-53CyA-unsplash.jpg,Stimuli/Experimental_stims/body_parts/jonathan-borba-hTwH8QFkPMs-unsplash.jpg,0,NaN,NaN,NaN,chosen,2000,50,50
1234,0,43,1,1,1,gain3,no_gain3,H,C,25,23,faces,outdoor_scenes,Stimuli/Experimental_stims/faces/aiony-haust-jmATI5Q_YgY-unsplash.jpg,Stimuli/Experimental_stims/outdoor_scenes/yuriy-bogdanov-W51VK3Obcj0-unsplash.jpg,0,NaN,NaN,NaN,chosen,1000,50,50
1234,0,44,1,1,1,gain3,no_gain1,H,A,12,50,outdoor_scenes,objects,Stimuli/Experimental_stims/outdoor_scenes/aleksandra-boguslawska-MS7KD9Ti7FQ-unsplash.jpg,Stimuli/Experimental_stims/objects/andrew-petrov-TVJqDat4MAw-unsplash.jpg,0,NaN,NaN,NaN,unchosen,1000,50,50
1234,0,45,1,1,0,no_gain4,gain5,J,D,54,34,objects,faces,Stimuli/Experimental_stims/objects/jess-bailey-nOeVi8DsN8U-unsplash.jpg,Stimuli/Experimental_stims/faces/olena-sergienko-0TSd6uCKTKc-unsplash.jpg,0,NaN,NaN,NaN,unchosen,3000,50,50
1234,0,46,1,1,1,gain6,no_gain6,I,K,15,55,outdoor_scenes,objects,Stimuli/Experimental_stims/outdoor_scenes/henry-be-NLF6hTe4PAg-unsplash.jpg,Stimuli/Experimental_stims/objects/jiangxulei1990-eIzzzwtkBjU-unsplash.jpg,0,NaN,NaN,NaN,unchosen,1500,50,50
1234,0,47,1,1,0,no_gain4,gain1,J,B,54,29,objects,faces,Stimuli/Experimental_stims/objects/jess-bailey-nOeVi8DsN8U-unsplash.jpg,Stimuli/Experimental_stims/faces/freddy-kearney-o-ioeoATbIM-unsplash.jpg,0,NaN,NaN,NaN,unchosen,1500,50,50
1234,0,48,1,1,1,gain6,no_gain5,I,F,40,30,body_parts,faces,Stimuli/Experimental_stims/body_parts/klara-kulikova-TcUfF24fUMY-unsplash.jpg,Stimuli/Experimental_stims/faces/good-faces-xmSWVeGEnJw-unsplash.jpg,0,NaN,NaN,NaN,chosen,3500,50,50
1234,0,49,1,1,0,no_gain5,gain4,F,L,36,33,body_parts,faces,Stimuli/Experimental_stims/body_parts/callum-skelton-3KLMq7y46nA-unsplash.jpg,Stimuli/Experimental_stims/faces/leilani-angel-K84vnnzxmTQ-unsplash.jpg,0,NaN,NaN,NaN,unchosen,1500,50,50
1234,0,50,1,1,0,no_gain6,gain3,K,H,55,12,objects,outdoor_scenes,Stimuli/Experimental_stims/objects/jiangxulei1990-eIzzzwtkBjU-unsplash.jpg,Stimuli/Experimental_stims/outdoor_scenes/aleksandra-boguslawska-MS7KD9Ti7FQ-unsplash.jpg,0,NaN,NaN,NaN,unchosen,2000,50,50
1234,0,51,1,1,0,no_gain2,gain6,E,I,41,15,body_parts,outdoor_scenes,Stimuli/Experimental_stims/body_parts/lucaxx-freire-CacZwMexYdk-unsplash.jpg,Stimuli/Experimental_stims/outdoor_scenes/henry-be-NLF6hTe4PAg-unsplash.jpg,0,NaN,NaN,NaN,unchosen,1000,50,50
1234,0,52,1,1,0,no_gain1,gain2,A,G,18,58,outdoor_scenes,objects,Stimuli/Experimental_stims/outdoor_scenes/meng-ji-8BH_M-53CyA-unsplash.jpg,Stimuli/Experimental_stims/objects/mockup-graphics-PNsj6RiHAF4-unsplash.jpg,0,NaN,NaN,NaN,chosen,3000,50,50
1234,0,53,1,1,1,gain6,no_gain5,I,F,15,36,outdoor_scenes,body_parts,Stimuli/Experimental_stims/outdoor_scenes/henry-be-NLF6hTe4PAg-unsplash.jpg,Stimuli/Experimental_stims/body_parts/callum-skelton-3KLMq7y46nA-unsplash.jpg,0,NaN,NaN,NaN,unchosen,1000,50,50
1234,0,54,1,1,0,no_gain6,gain2,K,G,37,58,body_parts,objects,Stimuli/Experimental_stims/body_parts/engin-akyurt-Q2rfH3GW39c-unsplash.jpg,Stimuli/Experimental_stims/objects/mockup-graphics-PNsj6RiHAF4-unsplash.jpg,0,NaN,NaN,NaN,chosen,3500,50,50
1234,0,55,1,1,1,gain1,no_gain1,B,A,22,18,outdoor_scenes,outdoor_scenes,Stimuli/Experimental_stims/outdoor_scenes/stephen-leonardi-gyIRjKPXupE-unsplash.jpg,Stimuli/Experimental_stims/outdoor_scenes/meng-ji-8BH_M-53CyA-unsplash.jpg,0,NaN,NaN,NaN,chosen,2000,50,50
1234,0,56,1,1,0,no_gain2,gain2,E,G,48,58,objects,objects,Stimuli/Experimental_stims/objects/alexander-andrews-JYGnB9gTCls-unsplash.jpg,Stimuli/Experimental_stims/objects/mockup-graphics-PNsj6RiHAF4-unsplash.jpg,0,NaN,NaN,NaN,chosen,1500,50,50
1234,0,57,1,1,1,gain1,no_gain1,B,A,29,50,faces,objects,Stimuli/Experimental_stims/faces/freddy-kearney-o-ioeoATbIM-unsplash.jpg,Stimuli/Experimental_stims/objects/andrew-petrov-TVJqDat4MAw-unsplash.jpg,0,NaN,NaN,NaN,unchosen,3500,50,50
1234,0,58,1,1,1,gain2,no_gain6,G,K,17,55,outdoor_scenes,objects,Stimuli/Experimental_stims/outdoor_scenes/jeff-king-bJHWJeiHfHc-unsplash.jpg,Stimuli/Experimental_stims/objects/jiangxulei1990-eIzzzwtkBjU-unsplash.jpg,0,NaN,NaN,NaN,unchosen,1500,50,50
1234,0,59,1,1,1,gain1,no_gain2,B,E,22,48,outdoor_scenes,objects,Stimuli/Experimental_stims/outdoor_scenes/stephen-leonardi-gyIRjKPXupE-unsplash.jpg,Stimuli/Experimental_stims/objects/alexander-andrews-JYGnB9gTCls-unsplash.jpg,0,NaN,NaN,NaN,chosen,1500,50,50
1234,0,60,1,1,1,gain5,no_gain3,D,C,53,23,objects,outdoor_scenes,Stimuli/Experimental_stims/objects/insung-yoon-w2JtIQQXoRU-unsplash.jpg,Stimuli/Experimental_stims/outdoor_scenes/yuriy-bogdanov-W51VK3Obcj0-unsplash.jpg,0,NaN,NaN,NaN,chosen,2000,50,50
1234,0,61,1,1,1,gain6,no_gain6,I,K,40,37,body_parts,body_parts,Stimuli/Experimental_stims/body_parts/klara-kulikova-TcUfF24fUMY-unsplash.jpg,Stimuli/Experimental_stims/body_parts/engin-akyurt-Q2rfH3GW39c-unsplash.jpg,0,NaN,NaN,NaN,chosen,1000,50,50
1234,0,62,1,1,0,no_gain1,gain3,A,H,18,25,outdoor_scenes,faces,Stimuli/Experimental_stims/outdoor_scenes/meng-ji-8BH_M-53CyA-unsplash.jpg,Stimuli/Experimental_stims/faces/aiony-haust-jmATI5Q_YgY-unsplash.jpg,0,NaN,NaN,NaN,chosen,1000,50,50
1234,0,63,1,1,0,no_gain3,gain1,C,B,23,22,outdoor_scenes,outdoor_scenes,Stimuli/Experimental_stims/outdoor_scenes/yuriy-bogdanov-W51VK3Obcj0-unsplash.jpg,Stimuli/Experimental_stims/outdoor_scenes/stephen-leonardi-gyIRjKPXupE-unsplash.jpg,0,NaN,NaN,NaN,chosen,3000,50,50
1234,0,64,1,1,1,gain4,no_gain3,L,C,39,23,body_parts,outdoor_scenes,Stimuli/Experimental_stims/body_parts/jonathan-borba-hTwH8QFkPMs-unsplash.jpg,Stimuli/Experimental_stims/outdoor_scenes/yuriy-bogdanov-W51VK3Obcj0-unsplash.jpg,0,NaN,NaN,NaN,chosen,3000,50,50
1234,0,65,1,1,1,gain1,no_gain6,B,K,22,37,outdoor_scenes,body_parts,Stimuli/Experimental_stims/outdoor_scenes/stephen-leonardi-gyIRjKPXupE-unsplash.jpg,Stimuli/Experimental_stims/body_parts/engin-akyurt-Q2rfH3GW39c-unsplash.jpg,0,NaN,NaN,NaN,chosen,1000,50,50
1234,0,66,1,1,0,no_gain3,gain6,C,I,23,40,outdoor_scenes,body_parts,Stimuli/Experimental_stims/outdoor_scenes/yuriy-bogdanov-W51VK3Obcj0-unsplash.jpg,Stimuli/Experimental_stims/body_parts/klara-kulikova-TcUfF24fUMY-unsplash.jpg,0,NaN,NaN,NaN,chosen,1000,50,50
1234,0,67,1,1,1,gain6,no_gain4,I,J,15,54,outdoor_scenes,objects,Stimuli/Experimental_stims/outdoor_scenes/henry-be-NLF6hTe4PAg-unsplash.jpg,Stimuli/Experimental_stims/objects/jess-bailey-nOeVi8DsN8U-unsplash.jpg,0,NaN,NaN,NaN,unchosen,1000,50,50
1234,0,68,1,1,0,no_gain1,gain4,A,L,50,33,objects,faces,Stimuli/Experimental_stims/objects/andrew-petrov-TVJqDat4MAw-unsplash.jpg,Stimuli/Experimental_stims/faces/leilani-angel-K84vnnzxmTQ-unsplash.jpg,0,NaN,NaN,NaN,unchosen,1000,50,50
1234,0,69,1,1,0,no_gain2,gain5,E,D,41,34,body_parts,faces,Stimuli/Experimental_stims/body_parts/lucaxx-freire-CacZwMexYdk-unsplash.jpg,Stimuli/Experimental_stims/faces/olena-sergienko-0TSd6uCKTKc-unsplash.jpg,0,NaN,NaN,NaN,unchosen,1000,50,50
1234,0,70,1,1,1,gain5,no_gain2,D,E,53,48,objects,objects,Stimuli/Experimental_stims/objects/insung-yoon-w2JtIQQXoRU-unsplash.jpg,Stimuli/Experimental_stims/objects/alexander-andrews-JYGnB9gTCls-unsplash.jpg,0,NaN,NaN,NaN,chosen,1500,50,50
1234,0,71,1,1,1,gain3,no_gain2,H,E,12,41,outdoor_scenes,body_parts,Stimuli/Experimental_stims/outdoor_scenes/aleksandra-boguslawska-MS7KD9Ti7FQ-unsplash.jpg,Stimuli/Experimental_stims/body_parts/lucaxx-freire-CacZwMexYdk-unsplash.jpg,0,NaN,NaN,NaN,unchosen,1000,50,50
1234,0,72,1,1,0,no_gain5,gain2,F,G,36,17,body_parts,outdoor_scenes,Stimuli/Experimental_stims/body_parts/callum-skelton-3KLMq7y46nA-unsplash.jpg,Stimuli/Experimental_stims/outdoor_scenes/jeff-king-bJHWJeiHfHc-unsplash.jpg,0,NaN,NaN,NaN,unchosen,2000,50,50
1234,0,73,1,1,0,no_gain3,gain2,C,G,45,17,body_parts,outdoor_scenes,Stimuli/Experimental_stims/body_parts/sincerely-media-7TBFwUQA6Xk-unsplash.jpg,Stimuli/Experimental_stims/outdoor_scenes/jeff-king-bJHWJeiHfHc-unsplash.jpg,0,NaN,NaN,NaN,unchosen,2000,50,50
1234,0,74,1,1,1,gain4,no_gain4,L,J,33,54,faces,objects,Stimuli/Experimental_stims/faces/leilani-angel-K84vnnzxmTQ-unsplash.jpg,Stimuli/Experimental_stims/objects/jess-bailey-nOeVi8DsN8U-unsplash.jpg,0,NaN,NaN,NaN,unchosen,1500,50,50
1234,0,75,1,1,1,gain2,no_gain3,G,C,58,23,objects,outdoor_scenes,Stimuli/Experimental_stims/objects/mockup-graphics-PNsj6RiHAF4-unsplash.jpg,Stimuli/Experimental_stims/outdoor_scenes/yuriy-bogdanov-W51VK3Obcj0-unsplash.jpg,0,NaN,NaN,NaN,chosen,1500,50,50
1234,0,76,1,1,0,no_gain5,gain2,F,G,30,58,faces,objects,Stimuli/Experimental_stims/faces/good-faces-xmSWVeGEnJw-unsplash.jpg,Stimuli/Experimental_stims/objects/mockup-graphics-PNsj6RiHAF4-unsplash.jpg,0,NaN,NaN,NaN,chosen,2000,50,50
1234,0,77,2,2,1,gain2,no_gain1,G,A,58,18,objects,outdoor_scenes,Stimuli/Experimental_stims/objects/mockup-graphics-PNsj6RiHAF4-unsplash.jpg,Stimuli/Experimental_stims/outdoor_scenes/meng-ji-8BH_M-53CyA-unsplash.jpg,0,NaN,NaN,NaN,chosen,1000,50,50
1234,0,78,2,2,0,no_gain5,gain6,F,I,36,15,body_parts,outdoor_scenes,Stimuli/Experimental_stims/body_parts/callum-skelton-3KLMq7y46nA-unsplash.jpg,Stimuli/Experimental_stims/outdoor_scenes/henry-be-NLF6hTe4PAg-unsplash.jpg,0,NaN,NaN,NaN,unchosen,3000,50,50
1234,0,79,2,2,0,no_gain1,gain6,A,I,18,40,outdoor_scenes,body_parts,Stimuli/Experimental_stims/outdoor_scenes/meng-ji-8BH_M-53CyA-unsplash.jpg,Stimuli/Experimental_stims/body_parts/klara-kulikova-TcUfF24fUMY-unsplash.jpg,0,NaN,NaN,NaN,chosen,2000,50,50
1234,0,80,2,2,1,gain5,no_gain5,D,F,53,30,objects,faces,Stimuli/Experimental_stims/objects/insung-yoon-w2JtIQQXoRU-unsplash.jpg,Stimuli/Experimental_stims/faces/good-faces-xmSWVeGEnJw-unsplash.jpg,0,NaN,NaN,NaN,chosen,1000,50,50
1234,0,81,2,2,1,gain6,no_gain4,I,J,15,54,outdoor_scenes,objects,Stimuli/Experimental_stims/outdoor_scenes/henry-be-NLF6hTe4PAg-unsplash.jpg,Stimuli/Experimental_stims/objects/jess-bailey-nOeVi8DsN8U-unsplash.jpg,0,NaN,NaN,NaN,unchosen,1000,50,50
1234,0,82,2,2,0,no_gain3,gain1,C,B,45,29,body_parts,faces,Stimuli/Experimental_stims/body_parts/sincerely-media-7TBFwUQA6Xk-unsplash.jpg,Stimuli/Experimental_stims/faces/freddy-kearney-o-ioeoATbIM-unsplash.jpg,0,NaN,NaN,NaN,unchosen,1500,50,50
1234,0,83,2,2,1,gain4,no_gain6,L,K,39,37,body_parts,body_parts,Stimuli/Experimental_stims/body_parts/jonathan-borba-hTwH8QFkPMs-unsplash.jpg,Stimuli/Experimental_stims/body_parts/engin-akyurt-Q2rfH3GW39c-unsplash.jpg,0,NaN,NaN,NaN,chosen,1000,50,50
1234,0,84,2,2,1,gain5,no_gain1,D,A,53,18,objects,outdoor_scenes,Stimuli/Experimental_stims/objects/insung-yoon-w2JtIQQXoRU-unsplash.jpg,Stimuli/Experimental_stims/outdoor_scenes/meng-ji-8BH_M-53CyA-unsplash.jpg,0,NaN,NaN,NaN,chosen,1500,50,50
1234,0,85,2,2,0,no_gain2,gain2,E,G,48,58,objects,objects,Stimuli/Experimental_stims/objects/alexander-andrews-JYGnB9gTCls-unsplash.jpg,Stimuli/Experimental_stims/objects/mockup-graphics-PNsj6RiHAF4-unsplash.jpg,0,NaN,NaN,NaN,chosen,1500,50,50
1234,0,86,2,2,1,gain2,no_gain3,G,C,17,45,outdoor_scenes,body_parts,Stimuli/Experimental_stims/outdoor_scenes/jeff-king-bJHWJeiHfHc-unsplash.jpg,Stimuli/Experimental_stims/body_parts/sincerely-media-7TBFwUQA6Xk-unsplash.jpg,0,NaN,NaN,NaN,unchosen,1000,50,50
1234,0,87,2,2,1,gain4,no_gain1,L,A,39,18,body_parts,outdoor_scenes,Stimuli/Experimental_stims/body_parts/jonathan-borba-hTwH8QFkPMs-unsplash.jpg,Stimuli/Experimental_stims/outdoor_scenes/meng-ji-8BH_M-53CyA-unsplash.jpg,0,NaN,NaN,NaN,chosen,1500,50,50
1234,0,88,2,2,0,no_gain6,gain5,K,D,55,34,objects,faces,Stimuli/Experimental_stims/objects/jiangxulei1990-eIzzzwtkBjU-unsplash.jpg,Stimuli/Experimental_stims/faces/olena-sergienko-0TSd6uCKTKc-unsplash.jpg,0,NaN,NaN,NaN,unchosen,1000,50,50
1234,0,89,2,2,0,no_gain4,gain4,J,L,26,39,faces,body_parts,Stimuli/Experimental_stims/faces/art-hauntington-jzY0KRJopEI-unsplash.jpg,Stimuli/Experimental_stims/body_parts/jonathan-borba-hTwH8QFkPMs-unsplash.jpg,0,NaN,NaN,NaN,chosen,1000,50,50
1234,0,90,2,2,0,no_gain4,gain2,J,G,54,17,objects,outdoor_scenes,Stimuli/Experimental_stims/objects/jess-bailey-nOeVi8DsN8U-unsplash.jpg,Stimuli/Experimental_stims/outdoor_scenes/jeff-king-bJHWJeiHfHc-unsplash.jpg,0,NaN,NaN,NaN,unchosen,1000,50,50
1234,0,91,2,2,1,gain4,no_gain3,L,C,33,45,faces,body_parts,Stimuli/Experimental_stims/faces/leilani-angel-K84vnnzxmTQ-unsplash.jpg,Stimuli/Experimental_stims/body_parts/sincerely-media-7TBFwUQA6Xk-unsplash.jpg,0,NaN,NaN,NaN,unchosen,1500,50,50
1234,0,92,2,2,1,gain6,no_gain3,I,C,40,23,body_parts,outdoor_scenes,Stimuli/Experimental_stims/body_parts/klara-kulikova-TcUfF24fUMY-unsplash.jpg,Stimuli/Experimental_stims/outdoor_scenes/yuriy-bogdanov-W51VK3Obcj0-unsplash.jpg,0,NaN,NaN,NaN,chosen,3000,50,50
1234,0,93,2,2,1,gain4,no_gain5,L,F,39,30,body_parts,faces,Stimuli/Experimental_stims/body_parts/jonathan-borba-hTwH8QFkPMs-unsplash.jpg,Stimuli/Experimental_stims/faces/good-faces-xmSWVeGEnJw-unsplash.jpg,0,NaN,NaN,NaN,chosen,1500,50,50
1234,0,94,2,2,0,no_gain5,gain5,F,D,36,34,body_parts,faces,Stimuli/Experimental_stims/body_parts/callum-skelton-3KLMq7y46nA-unsplash.jpg,Stimuli/Experimental_stims/faces/olena-sergienko-0TSd6uCKTKc-unsplash.jpg,0,NaN,NaN,NaN,unchosen,2000,50,50
1234,0,95,2,2,0,no_gain3,gain3,C,H,45,12,body_parts,outdoor_scenes,Stimuli/Experimental_stims/body_parts/sincerely-media-7TBFwUQA6Xk-unsplash.jpg,Stimuli/Experimental_stims/outdoor_scenes/aleksandra-boguslawska-MS7KD9Ti7FQ-unsplash.jpg,0,NaN,NaN,NaN,unchosen,2000,50,50
1234,0,96,2,2,1,gain3,no_gain2,H,E,25,48,faces,objects,Stimuli/Experimental_stims/faces/aiony-haust-jmATI5Q_YgY-unsplash.jpg,Stimuli/Experimental_stims/objects/alexander-andrews-JYGnB9gTCls-unsplash.jpg,0,NaN,NaN,NaN,chosen,1000,50,50
1234,0,97,2,2,0,no_gain3,gain6,C,I,45,15,body_parts,outdoor_scenes,Stimuli/Experimental_stims/body_parts/sincerely-media-7TBFwUQA6Xk-unsplash.jpg,Stimuli/Experimental_stims/outdoor_scenes/henry-be-NLF6hTe4PAg-unsplash.jpg,0,NaN,NaN,NaN,unchosen,1000,50,50
1234,0,98,2,2,1,gain4,no_gain3,L,C,39,23,body_parts,outdoor_scenes,Stimuli/Experimental_stims/body_parts/jonathan-borba-hTwH8QFkPMs-unsplash.jpg,Stimuli/Experimental_stims/outdoor_scenes/yuriy-bogdanov-W51VK3Obcj0-unsplash.jpg,0,NaN,NaN,NaN,chosen,3500,50,50
1234,0,99,2,2,0,no_gain2,gain5,E,D,41,34,body_parts,faces,Stimuli/Experimental_stims/body_parts/lucaxx-freire-CacZwMexYdk-unsplash.jpg,Stimuli/Experimental_stims/faces/olena-sergienko-0TSd6uCKTKc-unsplash.jpg,0,NaN,NaN,NaN,unchosen,2000,50,50
1234,0,100,2,2,1,gain6,no_gain5,I,F,40,30,body_parts,faces,Stimuli/Experimental_stims/body_parts/klara-kulikova-TcUfF24fUMY-unsplash.jpg,Stimuli/Experimental_stims/faces/good-faces-xmSWVeGEnJw-unsplash.jpg,0,NaN,NaN,NaN,chosen,3500,50,50
1234,0,101,2,2,1,gain6,no_gain2,I,E,15,41,outdoor_scenes,body_parts,Stimuli/Experimental_stims/outdoor_scenes/henry-be-NLF6hTe4PAg-unsplash.jpg,Stimuli/Experimental_stims/body_parts/lucaxx-freire-CacZwMexYdk-unsplash.jpg,0,NaN,NaN,NaN,unchosen,1500,50,50
1234,0,102,2,2,1,gain4,no_gain1,L,A,33,50,faces,objects,Stimuli/Experimental_stims/faces/leilani-angel-K84vnnzxmTQ-unsplash.jpg,Stimuli/Experimental_stims/objects/andrew-petrov-TVJqDat4MAw-unsplash.jpg,0,NaN,NaN,NaN,unchosen,3000,50,50
1234,0,103,2,2,0,no_gain6,gain5,K,D,37,53,body_parts,objects,Stimuli/Experimental_stims/body_parts/engin-akyurt-Q2rfH3GW39c-unsplash.jpg,Stimuli/Experimental_stims/objects/insung-yoon-w2JtIQQXoRU-unsplash.jpg,0,NaN,NaN,NaN,chosen,1000,50,50
1234,0,104,2,2,0,no_gain5,gain1,F,B,30,22,faces,outdoor_scenes,Stimuli/Experimental_stims/faces/good-faces-xmSWVeGEnJw-unsplash.jpg,Stimuli/Experimental_stims/outdoor_scenes/stephen-leonardi-gyIRjKPXupE-unsplash.jpg,0,NaN,NaN,NaN,chosen,2000,50,50
1234,0,105,2,2,0,no_gain4,gain5,J,D,54,34,objects,faces,Stimuli/Experimental_stims/objects/jess-bailey-nOeVi8DsN8U-unsplash.jpg,Stimuli/Experimental_stims/faces/olena-sergienko-0TSd6uCKTKc-unsplash.jpg,0,NaN,NaN,NaN,unchosen,1500,50,50
1234,0,106,2,2,1,gain2,no_gain3,G,C,58,23,objects,outdoor_scenes,Stimuli/Experimental_stims/objects/mockup-graphics-PNsj6RiHAF4-unsplash.jpg,Stimuli/Experimental_stims/outdoor_scenes/yuriy-bogdanov-W51VK3Obcj0-unsplash.jpg,0,NaN,NaN,NaN,chosen,1000,50,50
1234,0,107,2,2,1,gain5,no_gain3,D,C,34,45,faces,body_parts,Stimuli/Experimental_stims/faces/olena-sergienko-0TSd6uCKTKc-unsplash.jpg,Stimuli/Experimental_stims/body_parts/sincerely-media-7TBFwUQA6Xk-unsplash.jpg,0,NaN,NaN,NaN,unchosen,3500,50,50
1234,0,108,2,2,0,no_gain1,gain5,A,D,50,34,objects,faces,Stimuli/Experimental_stims/objects/andrew-petrov-TVJqDat4MAw-unsplash.jpg,Stimuli/Experimental_stims/faces/olena-sergienko-0TSd6uCKTKc-unsplash.jpg,0,NaN,NaN,NaN,unchosen,1500,50,50
1234,0,109,2,2,1,gain3,no_gain6,H,K,12,55,outdoor_scenes,objects,Stimuli/Experimental_stims/outdoor_scenes/aleksandra-boguslawska-MS7KD9Ti7FQ-unsplash.jpg,Stimuli/Experimental_stims/objects/jiangxulei1990-eIzzzwtkBjU-unsplash.jpg,0,NaN,NaN,NaN,unchosen,1000,50,50
1234,0,110,2,2,0,no_gain6,gain6,K,I,55,15,objects,outdoor_scenes,Stimuli/Experimental_stims/objects/jiangxulei1990-eIzzzwtkBjU-unsplash.jpg,Stimuli/Experimental_stims/outdoor_scenes/henry-be-NLF6hTe4PAg-unsplash.jpg,0,NaN,NaN,NaN,unchosen,1000,50,50
1234,0,111,2,2,0,no_gain1,gain1,A,B,18,22,outdoor_scenes,outdoor_scenes,Stimuli/Experimental_stims/outdoor_scenes/meng-ji-8BH_M-53CyA-unsplash.jpg,Stimuli/Experimental_stims/outdoor_scenes/stephen-leonardi-gyIRjKPXupE-unsplash.jpg,0,NaN,NaN,NaN,chosen,1000,50,50
1234,0,112,2,2,1,gain2,no_gain6,G,K,17,55,outdoor_scenes,objects,Stimuli/Experimental_stims/outdoor_scenes/jeff-king-bJHWJeiHfHc-unsplash.jpg,Stimuli/Experimental_stims/objects/jiangxulei1990-eIzzzwtkBjU-unsplash.jpg,0,NaN,NaN,NaN,unchosen,1500,50,50
1234,0,113,2,2,1,gain6,no_gain2,I,E,40,48,body_parts,objects,Stimuli/Experimental_stims/body_parts/klara-kulikova-TcUfF24fUMY-unsplash.jpg,Stimuli/Experimental_stims/objects/alexander-andrews-JYGnB9gTCls-unsplash.jpg,0,NaN,NaN,NaN,chosen,1500,50,50
1234,0,114,2,2,1,gain3,no_gain2,H,E,12,41,outdoor_scenes,body_parts,Stimuli/Experimental_stims/outdoor_scenes/aleksandra-boguslawska-MS7KD9Ti7FQ-unsplash.jpg,Stimuli/Experimental_stims/body_parts/lucaxx-freire-CacZwMexYdk-unsplash.jpg,0,NaN,NaN,NaN,unchosen,1000,50,50
1234,0,115,2,2,0,no_gain5,gain1,F,B,36,29,body_parts,faces,Stimuli/Experimental_stims/body_parts/callum-skelton-3KLMq7y46nA-unsplash.jpg,Stimuli/Experimental_stims/faces/freddy-kearney-o-ioeoATbIM-unsplash.jpg,0,NaN,NaN,NaN,unchosen,3500,50,50
1234,0,116,2,2,1,gain4,no_gain5,L,F,33,36,faces,body_parts,Stimuli/Experimental_stims/faces/leilani-angel-K84vnnzxmTQ-unsplash.jpg,Stimuli/Experimental_stims/body_parts/callum-skelton-3KLMq7y46nA-unsplash.jpg,0,NaN,NaN,NaN,unchosen,1000,50,50
1234,0,117,2,2,1,gain1,no_gain3,B,C,22,23,outdoor_scenes,outdoor_scenes,Stimuli/Experimental_stims/outdoor_scenes/stephen-leonardi-gyIRjKPXupE-unsplash.jpg,Stimuli/Experimental_stims/outdoor_scenes/yuriy-bogdanov-W51VK3Obcj0-unsplash.jpg,0,NaN,NaN,NaN,chosen,3000,50,50
1234,0,118,2,2,1,gain2,no_gain5,G,F,17,36,outdoor_scenes,body_parts,Stimuli/Experimental_stims/outdoor_scenes/jeff-king-bJHWJeiHfHc-unsplash.jpg,Stimuli/Experimental_stims/body_parts/callum-skelton-3KLMq7y46nA-unsplash.jpg,0,NaN,NaN,NaN,unchosen,1000,50,50
1234,0,119,2,2,0,no_gain4,gain3,J,H,54,12,objects,outdoor_scenes,Stimuli/Experimental_stims/objects/jess-bailey-nOeVi8DsN8U-unsplash.jpg,Stimuli/Experimental_stims/outdoor_scenes/aleksandra-boguslawska-MS7KD9Ti7FQ-unsplash.jpg,0,NaN,NaN,NaN,unchosen,3000,50,50
1234,0,120,2,2,1,gain1,no_gain4,B,J,22,26,outdoor_scenes,faces,Stimuli/Experimental_stims/outdoor_scenes/stephen-leonardi-gyIRjKPXupE-unsplash.jpg,Stimuli/Experimental_stims/faces/art-hauntington-jzY0KRJopEI-unsplash.jpg,0,NaN,NaN,NaN,chosen,3000,50,50
1234,0,121,2,2,1,gain2,no_gain5,G,F,58,30,objects,faces,Stimuli/Experimental_stims/objects/mockup-graphics-PNsj6RiHAF4-unsplash.jpg,Stimuli/Experimental_stims/faces/good-faces-xmSWVeGEnJw-unsplash.jpg,0,NaN,NaN,NaN,chosen,2000,50,50
1234,0,122,2,2,0,no_gain6,gain1,K,B,37,22,body_parts,outdoor_scenes,Stimuli/Experimental_stims/body_parts/engin-akyurt-Q2rfH3GW39c-unsplash.jpg,Stimuli/Experimental_stims/outdoor_scenes/stephen-leonardi-gyIRjKPXupE-unsplash.jpg,0,NaN,NaN,NaN,chosen,2000,50,50
1234,0,123,2,2,1,gain2,no_gain2,G,E,17,41,outdoor_scenes,body_parts,Stimuli/Experimental_stims/outdoor_scenes/jeff-king-bJHWJeiHfHc-unsplash.jpg,Stimuli/Experimental_stims/body_parts/lucaxx-freire-CacZwMexYdk-unsplash.jpg,0,NaN,NaN,NaN,unchosen,1000,50,50
1234,0,124,2,2,0,no_gain4,gain6,J,I,26,40,faces,body_parts,Stimuli/Experimental_stims/faces/art-hauntington-jzY0KRJopEI-unsplash.jpg,Stimuli/Experimental_stims/body_parts/klara-kulikova-TcUfF24fUMY-unsplash.jpg,0,NaN,NaN,NaN,chosen,3000,50,50
1234,0,125,2,2,0,no_gain6,gain1,K,B,55,29,objects,faces,Stimuli/Experimental_stims/objects/jiangxulei1990-eIzzzwtkBjU-unsplash.jpg,Stimuli/Experimental_stims/faces/freddy-kearney-o-ioeoATbIM-unsplash.jpg,0,NaN,NaN,NaN,unchosen,1500,50,50
1234,0,126,2,2,0,no_gain4,gain2,J,G,26,58,faces,objects,Stimuli/Experimental_stims/faces/art-hauntington-jzY0KRJopEI-unsplash.jpg,Stimuli/Experimental_stims/objects/mockup-graphics-PNsj6RiHAF4-unsplash.jpg,0,NaN,NaN,NaN,chosen,2000,50,50
1234,0,127,2,2,0,no_gain6,gain6,K,I,37,40,body_parts,body_parts,Stimuli/Experimental_stims/body_parts/engin-akyurt-Q2rfH3GW39c-unsplash.jpg,Stimuli/Experimental_stims/body_parts/klara-kulikova-TcUfF24fUMY-unsplash.jpg,0,NaN,NaN,NaN,chosen,1500,50,50
1234,0,128,2,2,0,no_gain6,gain2,K,G,37,58,body_parts,objects,Stimuli/Experimental_stims/body_parts/engin-akyurt-Q2rfH3GW39c-unsplash.jpg,Stimuli/Experimental_stims/objects/mockup-graphics-PNsj6RiHAF4-unsplash.jpg,0,NaN,NaN,NaN,chosen,2000,50,50
1234,0,129,2,2,0,no_gain3,gain3,C,H,23,25,outdoor_scenes,faces,Stimuli/Experimental_stims/outdoor_scenes/yuriy-bogdanov-W51VK3Obcj0-unsplash.jpg,Stimuli/Experimental_stims/faces/aiony-haust-jmATI5Q_YgY-unsplash.jpg,0,NaN,NaN,NaN,chosen,1000,50,50
1234,0,130,2,2,0,no_gain2,gain5,E,D,48,53,objects,objects,Stimuli/Experimental_stims/objects/alexander-andrews-JYGnB9gTCls-unsplash.jpg,Stimuli/Experimental_stims/objects/insung-yoon-w2JtIQQXoRU-unsplash.jpg,0,NaN,NaN,NaN,chosen,1500,50,50
1234,0,131,2,2,0,no_gain1,gain2,A,G,50,17,objects,outdoor_scenes,Stimuli/Experimental_stims/objects/andrew-petrov-TVJqDat4MAw-unsplash.jpg,Stimuli/Experimental_stims/outdoor_scenes/jeff-king-bJHWJeiHfHc-unsplash.jpg,0,NaN,NaN,NaN,unchosen,3000,50,50
1234,0,132,2,2,0,no_gain5,gain3,F,H,30,25,faces,faces,Stimuli/Experimental_stims/faces/good-faces-xmSWVeGEnJw-unsplash.jpg,Stimuli/Experimental_stims/faces/aiony-haust-jmATI5Q_YgY-unsplash.jpg,0,NaN,NaN,NaN,chosen,1000,50,50
1234,0,133,2,2,1,gain5,no_gain4,D,J,53,26,objects,faces,Stimuli/Experimental_stims/objects/insung-yoon-w2JtIQQXoRU-unsplash.jpg,Stimuli/Experimental_stims/faces/art-hauntington-jzY0KRJopEI-unsplash.jpg,0,NaN,NaN,NaN,chosen,1500,50,50
1234,0,134,2,2,1,gain4,no_gain4,L,J,33,54,faces,objects,Stimuli/Experimental_stims/faces/leilani-angel-K84vnnzxmTQ-unsplash.jpg,Stimuli/Experimental_stims/objects/jess-bailey-nOeVi8DsN8U-unsplash.jpg,0,NaN,NaN,NaN,unchosen,1500,50,50
1234,0,135,2,2,0,no_gain2,gain4,E,L,48,39,objects,body_parts,Stimuli/Experimental_stims/objects/alexander-andrews-JYGnB9gTCls-unsplash.jpg,Stimuli/Experimental_stims/body_parts/jonathan-borba-hTwH8QFkPMs-unsplash.jpg,0,NaN,NaN,NaN,chosen,1000,50,50
1234,0,136,2,2,1,gain1,no_gain2,B,E,29,41,faces,body_parts,Stimuli/Experimental_stims/faces/freddy-kearney-o-ioeoATbIM-unsplash.jpg,Stimuli/Experimental_stims/body_parts/lucaxx-freire-CacZwMexYdk-unsplash.jpg,0,NaN,NaN,NaN,unchosen,1000,50,50
1234,0,137,2,2,0,no_gain1,gain1,A,B,50,29,objects,faces,Stimuli/Experimental_stims/objects/andrew-petrov-TVJqDat4MAw-unsplash.jpg,Stimuli/Experimental_stims/faces/freddy-kearney-o-ioeoATbIM-unsplash.jpg,0,NaN,NaN,NaN,unchosen,1000,50,50
1234,0,138,2,2,1,gain3,no_gain1,H,A,12,50,outdoor_scenes,objects,Stimuli/Experimental_stims/outdoor_scenes/aleksandra-boguslawska-MS7KD9Ti7FQ-unsplash.jpg,Stimuli/Experimental_stims/objects/andrew-petrov-TVJqDat4MAw-unsplash.jpg,0,NaN,NaN,NaN,unchosen,1500,50,50
1234,0,139,2,2,0,no_gain4,gain1,J,B,54,29,objects,faces,Stimuli/Experimental_stims/objects/jess-bailey-nOeVi8DsN8U-unsplash.jpg,Stimuli/Experimental_stims/faces/freddy-kearney-o-ioeoATbIM-unsplash.jpg,0,NaN,NaN,NaN,unchosen,2000,50,50
1234,0,140,2,2,1,gain4,no_gain2,L,E,33,41,faces,body_parts,Stimuli/Experimental_stims/faces/leilani-angel-K84vnnzxmTQ-unsplash.jpg,Stimuli/Experimental_stims/body_parts/lucaxx-freire-CacZwMexYdk-unsplash.jpg,0,NaN,NaN,NaN,unchosen,1500,50,50
1234,0,141,2,2,1,gain5,no_gain3,D,C,53,23,objects,outdoor_scenes,Stimuli/Experimental_stims/objects/insung-yoon-w2JtIQQXoRU-unsplash.jpg,Stimuli/Experimental_stims/outdoor_scenes/yuriy-bogdanov-W51VK3Obcj0-unsplash.jpg,0,NaN,NaN,NaN,chosen,1500,50,50
1234,0,142,2,2,0,no_gain4,gain3,J,H,26,25,faces,faces,Stimuli/Experimental_stims/faces/art-hauntington-jzY0KRJopEI-unsplash.jpg,Stimuli/Experimental_stims/faces/aiony-haust-jmATI5Q_YgY-unsplash.jpg,0,NaN,NaN,NaN,chosen,1500,50,50
1234,0,143,2,2,0,no_gain2,gain1,E,B,48,22,objects,outdoor_scenes,Stimuli/Experimental_stims/objects/alexander-andrews-JYGnB9gTCls-unsplash.jpg,Stimuli/Experimental_stims/outdoor_scenes/stephen-leonardi-gyIRjKPXupE-unsplash.jpg,0,NaN,NaN,NaN,chosen,1000,50,50
1234,0,144,2,2,1,gain3,no_gain1,H,A,25,18,faces,outdoor_scenes,Stimuli/Experimental_stims/faces/aiony-haust-jmATI5Q_YgY-unsplash.jpg,Stimuli/Experimental_stims/outdoor_scenes/meng-ji-8BH_M-53CyA-unsplash.jpg,0,NaN,NaN,NaN,chosen,1000,50,50
1234,0,145,2,2,1,gain6,no_gain1,I,A,15,50,outdoor_scenes,objects,Stimuli/Experimental_stims/outdoor_scenes/henry-be-NLF6hTe4PAg-unsplash.jpg,Stimuli/Experimental_stims/objects/andrew-petrov-TVJqDat4MAw-unsplash.jpg,0,NaN,NaN,NaN,unchosen,2000,50,50
1234,0,146,2,2,1,gain4,no_gain6,L,K,33,55,faces,objects,Stimuli/Experimental_stims/faces/leilani-angel-K84vnnzxmTQ-unsplash.jpg,Stimuli/Experimental_stims/objects/jiangxulei1990-eIzzzwtkBjU-unsplash.jpg,0,NaN,NaN,NaN,unchosen,2000,50,50
1234,0,147,2,2,0,no_gain5,gain3,F,H,36,12,body_parts,outdoor_scenes,Stimuli/Experimental_stims/body_parts/callum-skelton-3KLMq7y46nA-unsplash.jpg,Stimuli/Experimental_stims/outdoor_scenes/aleksandra-boguslawska-MS7KD9Ti7FQ-unsplash.jpg,0,NaN,NaN,NaN,unchosen,1000,50,50
1234,0,148,2,2,0,no_gain6,gain3,K,H,37,25,body_parts,faces,Stimuli/Experimental_stims/body_parts/engin-akyurt-Q2rfH3GW39c-unsplash.jpg,Stimuli/Experimental_stims/faces/aiony-haust-jmATI5Q_YgY-unsplash.jpg,0,NaN,NaN,NaN,chosen,1000,50,50
1234,0,149,3,3,0,no_gain2,gain2,E,G,48,58,objects,objects,Stimuli/Experimental_stims/objects/alexander-andrews-JYGnB9gTCls-unsplash.jpg,Stimuli/Experimental_stims/objects/mockup-graphics-PNsj6RiHAF4-unsplash.jpg,0,NaN,NaN,NaN,chosen,1500,50,50
1234,0,150,3,3,0,no_gain2,gain1,E,B,41,29,body_parts,faces,Stimuli/Experimental_stims/body_parts/lucaxx-freire-CacZwMexYdk-unsplash.jpg,Stimuli/Experimental_stims/faces/freddy-kearney-o-ioeoATbIM-unsplash.jpg,0,NaN,NaN,NaN,unchosen,3000,50,50
1234,0,151,3,3,0,no_gain6,gain4,K,L,55,33,objects,faces,Stimuli/Experimental_stims/objects/jiangxulei1990-eIzzzwtkBjU-unsplash.jpg,Stimuli/Experimental_stims/faces/leilani-angel-K84vnnzxmTQ-unsplash.jpg,0,NaN,NaN,NaN,unchosen,3000,50,50
1234,0,152,3,3,1,gain3,no_gain3,H,C,12,45,outdoor_scenes,body_parts,Stimuli/Experimental_stims/outdoor_scenes/aleksandra-boguslawska-MS7KD9Ti7FQ-unsplash.jpg,Stimuli/Experimental_stims/body_parts/sincerely-media-7TBFwUQA6Xk-unsplash.jpg,0,NaN,NaN,NaN,unchosen,1500,50,50
1234,0,153,3,3,0,no_gain4,gain1,J,B,26,22,faces,outdoor_scenes,Stimuli/Experimental_stims/faces/art-hauntington-jzY0KRJopEI-unsplash.jpg,Stimuli/Experimental_stims/outdoor_scenes/stephen-leonardi-gyIRjKPXupE-unsplash.jpg,0,NaN,NaN,NaN,chosen,2000,50,50
1234,0,154,3,3,0,no_gain1,gain4,A,L,50,33,objects,faces,Stimuli/Experimental_stims/objects/andrew-petrov-TVJqDat4MAw-unsplash.jpg,Stimuli/Experimental_stims/faces/leilani-angel-K84vnnzxmTQ-unsplash.jpg,0,NaN,NaN,NaN,unchosen,1500,50,50
1234,0,155,3,3,1,gain4,no_gain2,L,E,33,41,faces,body_parts,Stimuli/Experimental_stims/faces/leilani-angel-K84vnnzxmTQ-unsplash.jpg,Stimuli/Experimental_stims/body_parts/lucaxx-freire-CacZwMexYdk-unsplash.jpg,0,NaN,NaN,NaN,unchosen,2000,50,50
1234,0,156,3,3,0,no_gain5,gain6,F,I,36,15,body_parts,outdoor_scenes,Stimuli/Experimental_stims/body_parts/callum-skelton-3KLMq7y46nA-unsplash.jpg,Stimuli/Experimental_stims/outdoor_scenes/henry-be-NLF6hTe4PAg-unsplash.jpg,0,NaN,NaN,NaN,unchosen,1500,50,50
1234,0,157,3,3,1,gain5,no_gain5,D,F,34,36,faces,body_parts,Stimuli/Experimental_stims/faces/olena-sergienko-0TSd6uCKTKc-unsplash.jpg,Stimuli/Experimental_stims/body_parts/callum-skelton-3KLMq7y46nA-unsplash.jpg,0,NaN,NaN,NaN,unchosen,1000,50,50
1234,0,158,3,3,0,no_gain3,gain4,C,L,23,39,outdoor_scenes,body_parts,Stimuli/Experimental_stims/outdoor_scenes/yuriy-bogdanov-W51VK3Obcj0-unsplash.jpg,Stimuli/Experimental_stims/body_parts/jonathan-borba-hTwH8QFkPMs-unsplash.jpg,0,NaN,NaN,NaN,chosen,3500,50,50
1234,0,159,3,3,0,no_gain5,gain3,F,H,36,12,body_parts,outdoor_scenes,Stimuli/Experimental_stims/body_parts/callum-skelton-3KLMq7y46nA-unsplash.jpg,Stimuli/Experimental_stims/outdoor_scenes/aleksandra-boguslawska-MS7KD9Ti7FQ-unsplash.jpg,0,NaN,NaN,NaN,unchosen,1500,50,50
1234,0,160,3,3,0,no_gain4,gain4,J,L,54,33,objects,faces,Stimuli/Experimental_stims/objects/jess-bailey-nOeVi8DsN8U-unsplash.jpg,Stimuli/Experimental_stims/faces/leilani-angel-K84vnnzxmTQ-unsplash.jpg,0,NaN,NaN,NaN,unchosen,1000,50,50
1234,0,161,3,3,0,no_gain6,gain5,K,D,37,53,body_parts,objects,Stimuli/Experimental_stims/body_parts/engin-akyurt-Q2rfH3GW39c-unsplash.jpg,Stimuli/Experimental_stims/objects/insung-yoon-w2JtIQQXoRU-unsplash.jpg,0,NaN,NaN,NaN,chosen,1000,50,50
1234,0,162,3,3,1,gain2,no_gain6,G,K,17,55,outdoor_scenes,objects,Stimuli/Experimental_stims/outdoor_scenes/jeff-king-bJHWJeiHfHc-unsplash.jpg,Stimuli/Experimental_stims/objects/jiangxulei1990-eIzzzwtkBjU-unsplash.jpg,0,NaN,NaN,NaN,unchosen,1500,50,50
1234,0,163,3,3,0,no_gain4,gain3,J,H,26,25,faces,faces,Stimuli/Experimental_stims/faces/art-hauntington-jzY0KRJopEI-unsplash.jpg,Stimuli/Experimental_stims/faces/aiony-haust-jmATI5Q_YgY-unsplash.jpg,0,NaN,NaN,NaN,chosen,3000,50,50
1234,0,164,3,3,0,no_gain4,gain6,J,I,26,40,faces,body_parts,Stimuli/Experimental_stims/faces/art-hauntington-jzY0KRJopEI-unsplash.jpg,Stimuli/Experimental_stims/body_parts/klara-kulikova-TcUfF24fUMY-unsplash.jpg,0,NaN,NaN,NaN,chosen,1000,50,50
1234,0,165,3,3,0,no_gain1,gain1,A,B,50,29,objects,faces,Stimuli/Experimental_stims/objects/andrew-petrov-TVJqDat4MAw-unsplash.jpg,Stimuli/Experimental_stims/faces/freddy-kearney-o-ioeoATbIM-unsplash.jpg,0,NaN,NaN,NaN,unchosen,1000,50,50
1234,0,166,3,3,1,gain6,no_gain3,I,C,15,45,outdoor_scenes,body_parts,Stimuli/Experimental_stims/outdoor_scenes/henry-be-NLF6hTe4PAg-unsplash.jpg,Stimuli/Experimental_stims/body_parts/sincerely-media-7TBFwUQA6Xk-unsplash.jpg,0,NaN,NaN,NaN,unchosen,2000,50,50
1234,0,167,3,3,1,gain3,no_gain3,H,C,25,23,faces,outdoor_scenes,Stimuli/Experimental_stims/faces/aiony-haust-jmATI5Q_YgY-unsplash.jpg,Stimuli/Experimental_stims/outdoor_scenes/yuriy-bogdanov-W51VK3Obcj0-unsplash.jpg,0,NaN,NaN,NaN,chosen,1000,50,50
1234,0,168,3,3,0,no_gain3,gain1,C,B,45,29,body_parts,faces,Stimuli/Experimental_stims/body_parts/sincerely-media-7TBFwUQA6Xk-unsplash.jpg,Stimuli/Experimental_stims/faces/freddy-kearney-o-ioeoATbIM-unsplash.jpg,0,NaN,NaN,NaN,unchosen,1000,50,50
1234,0,169,3,3,1,gain1,no_gain1,B,A,22,18,outdoor_scenes,outdoor_scenes,Stimuli/Experimental_stims/outdoor_scenes/stephen-leonardi-gyIRjKPXupE-unsplash.jpg,Stimuli/Experimental_stims/outdoor_scenes/meng-ji-8BH_M-53CyA-unsplash.jpg,0,NaN,NaN,NaN,chosen,2000,50,50
1234,0,170,3,3,1,gain4,no_gain5,L,F,33,36,faces,body_parts,Stimuli/Experimental_stims/faces/leilani-angel-K84vnnzxmTQ-unsplash.jpg,Stimuli/Experimental_stims/body_parts/callum-skelton-3KLMq7y46nA-unsplash.jpg,0,NaN,NaN,NaN,unchosen,1500,50,50
1234,0,171,3,3,1,gain4,no_gain5,L,F,39,30,body_parts,faces,Stimuli/Experimental_stims/body_parts/jonathan-borba-hTwH8QFkPMs-unsplash.jpg,Stimuli/Experimental_stims/faces/good-faces-xmSWVeGEnJw-unsplash.jpg,0,NaN,NaN,NaN,chosen,1000,50,50
1234,0,172,3,3,1,gain4,no_gain6,L,K,39,37,body_parts,body_parts,Stimuli/Experimental_stims/body_parts/jonathan-borba-hTwH8QFkPMs-unsplash.jpg,Stimuli/Experimental_stims/body_parts/engin-akyurt-Q2rfH3GW39c-unsplash.jpg,0,NaN,NaN,NaN,chosen,1000,50,50
1234,0,173,3,3,0,no_gain1,gain6,A,I,50,15,objects,outdoor_scenes,Stimuli/Experimental_stims/objects/andrew-petrov-TVJqDat4MAw-unsplash.jpg,Stimuli/Experimental_stims/outdoor_scenes/henry-be-NLF6hTe4PAg-unsplash.jpg,0,NaN,NaN,NaN,unchosen,1000,50,50
1234,0,174,3,3,0,no_gain2,gain3,E,H,48,25,objects,faces,Stimuli/Experimental_stims/objects/alexander-andrews-JYGnB9gTCls-unsplash.jpg,Stimuli/Experimental_stims/faces/aiony-haust-jmATI5Q_YgY-unsplash.jpg,0,NaN,NaN,NaN,chosen,1000,50,50
1234,0,175,3,3,1,gain2,no_gain5,G,F,17,36,outdoor_scenes,body_parts,Stimuli/Experimental_stims/outdoor_scenes/jeff-king-bJHWJeiHfHc-unsplash.jpg,Stimuli/Experimental_stims/body_parts/callum-skelton-3KLMq7y46nA-unsplash.jpg,0,NaN,NaN,NaN,unchosen,2000,50,50
1234,0,176,3,3,1,gain3,no_gain5,H,F,25,30,faces,faces,Stimuli/Experimental_stims/faces/aiony-haust-jmATI5Q_YgY-unsplash.jpg,Stimuli/Experimental_stims/faces/good-faces-xmSWVeGEnJw-unsplash.jpg,0,NaN,NaN,NaN,chosen,1000,50,50
1234,0,177,3,3,0,no_gain1,gain6,A,I,18,40,outdoor_scenes,body_parts,Stimuli/Experimental_stims/outdoor_scenes/meng-ji-8BH_M-53CyA-unsplash.jpg,Stimuli/Experimental_stims/body_parts/klara-kulikova-TcUfF24fUMY-unsplash.jpg,0,NaN,NaN,NaN,chosen,1500,50,50
1234,0,178,3,3,0,no_gain3,gain5,C,D,45,34,body_parts,faces,Stimuli/Experimental_stims/body_parts/sincerely-media-7TBFwUQA6Xk-unsplash.jpg,Stimuli/Experimental_stims/faces/olena-sergienko-0TSd6uCKTKc-unsplash.jpg,0,NaN,NaN,NaN,unchosen,3500,50,50
1234,0,179,3,3,0,no_gain6,gain1,K,B,55,29,objects,faces,Stimuli/Experimental_stims/objects/jiangxulei1990-eIzzzwtkBjU-unsplash.jpg,Stimuli/Experimental_stims/faces/freddy-kearney-o-ioeoATbIM-unsplash.jpg,0,NaN,NaN,NaN,unchosen,1000,50,50
1234,0,180,3,3,1,gain2,no_gain3,G,C,17,45,outdoor_scenes,body_parts,Stimuli/Experimental_stims/outdoor_scenes/jeff-king-bJHWJeiHfHc-unsplash.jpg,Stimuli/Experimental_stims/body_parts/sincerely-media-7TBFwUQA6Xk-unsplash.jpg,0,NaN,NaN,NaN,unchosen,1000,50,50
1234,0,181,3,3,1,gain2,no_gain4,G,J,17,54,outdoor_scenes,objects,Stimuli/Experimental_stims/outdoor_scenes/jeff-king-bJHWJeiHfHc-unsplash.jpg,Stimuli/Experimental_stims/objects/jess-bailey-nOeVi8DsN8U-unsplash.jpg,0,NaN,NaN,NaN,unchosen,3000,50,50
1234,0,182,3,3,0,no_gain1,gain2,A,G,50,17,objects,outdoor_scenes,Stimuli/Experimental_stims/objects/andrew-petrov-TVJqDat4MAw-unsplash.jpg,Stimuli/Experimental_stims/outdoor_scenes/jeff-king-bJHWJeiHfHc-unsplash.jpg,0,NaN,NaN,NaN,unchosen,1500,50,50
1234,0,183,3,3,1,gain6,no_gain6,I,K,15,55,outdoor_scenes,objects,Stimuli/Experimental_stims/outdoor_scenes/henry-be-NLF6hTe4PAg-unsplash.jpg,Stimuli/Experimental_stims/objects/jiangxulei1990-eIzzzwtkBjU-unsplash.jpg,0,NaN,NaN,NaN,unchosen,1000,50,50
1234,0,184,3,3,1,gain2,no_gain6,G,K,58,37,objects,body_parts,Stimuli/Experimental_stims/objects/mockup-graphics-PNsj6RiHAF4-unsplash.jpg,Stimuli/Experimental_stims/body_parts/engin-akyurt-Q2rfH3GW39c-unsplash.jpg,0,NaN,NaN,NaN,chosen,1500,50,50
1234,0,185,3,3,0,no_gain2,gain5,E,D,41,34,body_parts,faces,Stimuli/Experimental_stims/body_parts/lucaxx-freire-CacZwMexYdk-unsplash.jpg,Stimuli/Experimental_stims/faces/olena-sergienko-0TSd6uCKTKc-unsplash.jpg,0,NaN,NaN,NaN,unchosen,1500,50,50
1234,0,186,3,3,1,gain5,no_gain6,D,K,34,55,faces,objects,Stimuli/Experimental_stims/faces/olena-sergienko-0TSd6uCKTKc-unsplash.jpg,Stimuli/Experimental_stims/objects/jiangxulei1990-eIzzzwtkBjU-unsplash.jpg,0,NaN,NaN,NaN,unchosen,1000,50,50
1234,0,187,3,3,0,no_gain1,gain5,A,D,18,53,outdoor_scenes,objects,Stimuli/Experimental_stims/outdoor_scenes/meng-ji-8BH_M-53CyA-unsplash.jpg,Stimuli/Experimental_stims/objects/insung-yoon-w2JtIQQXoRU-unsplash.jpg,0,NaN,NaN,NaN,chosen,1500,50,50
1234,0,188,3,3,1,gain4,no_gain2,L,E,39,48,body_parts,objects,Stimuli/Experimental_stims/body_parts/jonathan-borba-hTwH8QFkPMs-unsplash.jpg,Stimuli/Experimental_stims/objects/alexander-andrews-JYGnB9gTCls-unsplash.jpg,0,NaN,NaN,NaN,chosen,1500,50,50
1234,0,189,3,3,0,no_gain5,gain1,F,B,30,22,faces,outdoor_scenes,Stimuli/Experimental_stims/faces/good-faces-xmSWVeGEnJw-unsplash.jpg,Stimuli/Experimental_stims/outdoor_scenes/stephen-leonardi-gyIRjKPXupE-unsplash.jpg,0,NaN,NaN,NaN,chosen,1500,50,50
1234,0,190,3,3,1,gain3,no_gain4,H,J,12,54,outdoor_scenes,objects,Stimuli/Experimental_stims/outdoor_scenes/aleksandra-boguslawska-MS7KD9Ti7FQ-unsplash.jpg,Stimuli/Experimental_stims/objects/jess-bailey-nOeVi8DsN8U-unsplash.jpg,0,NaN,NaN,NaN,unchosen,2000,50,50
1234,0,191,3,3,0,no_gain1,gain3,A,H,50,12,objects,outdoor_scenes,Stimuli/Experimental_stims/objects/andrew-petrov-TVJqDat4MAw-unsplash.jpg,Stimuli/Experimental_stims/outdoor_scenes/aleksandra-boguslawska-MS7KD9Ti7FQ-unsplash.jpg,0,NaN,NaN,NaN,unchosen,1000,50,50
1234,0,192,3,3,0,no_gain6,gain3,K,H,37,25,body_parts,faces,Stimuli/Experimental_stims/body_parts/engin-akyurt-Q2rfH3GW39c-unsplash.jpg,Stimuli/Experimental_stims/faces/aiony-haust-jmATI5Q_YgY-unsplash.jpg,0,NaN,NaN,NaN,chosen,1000,50,50
1234,0,193,3,3,0,no_gain2,gain5,E,D,48,53,objects,objects,Stimuli/Experimental_stims/objects/alexander-andrews-JYGnB9gTCls-unsplash.jpg,Stimuli/Experimental_stims/objects/insung-yoon-w2JtIQQXoRU-unsplash.jpg,0,NaN,NaN,NaN,chosen,2000,50,50
1234,0,194,3,3,1,gain6,no_gain4,I,J,15,54,outdoor_scenes,objects,Stimuli/Experimental_stims/outdoor_scenes/henry-be-NLF6hTe4PAg-unsplash.jpg,Stimuli/Experimental_stims/objects/jess-bailey-nOeVi8DsN8U-unsplash.jpg,0,NaN,NaN,NaN,unchosen,3500,50,50
1234,0,195,3,3,1,gain4,no_gain1,L,A,39,18,body_parts,outdoor_scenes,Stimuli/Experimental_stims/body_parts/jonathan-borba-hTwH8QFkPMs-unsplash.jpg,Stimuli/Experimental_stims/outdoor_scenes/meng-ji-8BH_M-53CyA-unsplash.jpg,0,NaN,NaN,NaN,chosen,1500,50,50
1234,0,196,3,3,1,gain4,no_gain3,L,C,33,45,faces,body_parts,Stimuli/Experimental_stims/faces/leilani-angel-K84vnnzxmTQ-unsplash.jpg,Stimuli/Experimental_stims/body_parts/sincerely-media-7TBFwUQA6Xk-unsplash.jpg,0,NaN,NaN,NaN,unchosen,1000,50,50
1234,0,197,3,3,0,no_gain3,gain6,C,I,23,40,outdoor_scenes,body_parts,Stimuli/Experimental_stims/outdoor_scenes/yuriy-bogdanov-W51VK3Obcj0-unsplash.jpg,Stimuli/Experimental_stims/body_parts/klara-kulikova-TcUfF24fUMY-unsplash.jpg,0,NaN,NaN,NaN,chosen,3000,50,50
1234,0,198,3,3,0,no_gain2,gain3,E,H,41,12,body_parts,outdoor_scenes,Stimuli/Experimental_stims/body_parts/lucaxx-freire-CacZwMexYdk-unsplash.jpg,Stimuli/Experimental_stims/outdoor_scenes/aleksandra-boguslawska-MS7KD9Ti7FQ-unsplash.jpg,0,NaN,NaN,NaN,unchosen,1000,50,50
1234,0,199,3,3,1,gain1,no_gain6,B,K,22,37,outdoor_scenes,body_parts,Stimuli/Experimental_stims/outdoor_scenes/stephen-leonardi-gyIRjKPXupE-unsplash.jpg,Stimuli/Experimental_stims/body_parts/engin-akyurt-Q2rfH3GW39c-unsplash.jpg,0,NaN,NaN,NaN,chosen,1000,50,50
1234,0,200,3,3,0,no_gain3,gain1,C,B,23,22,outdoor_scenes,outdoor_scenes,Stimuli/Experimental_stims/outdoor_scenes/yuriy-bogdanov-W51VK3Obcj0-unsplash.jpg,Stimuli/Experimental_stims/outdoor_scenes/stephen-leonardi-gyIRjKPXupE-unsplash.jpg,0,NaN,NaN,NaN,chosen,3000,50,50
1234,0,201,3,3,0,no_gain5,gain5,F,D,30,53,faces,objects,Stimuli/Experimental_stims/faces/good-faces-xmSWVeGEnJw-unsplash.jpg,Stimuli/Experimental_stims/objects/insung-yoon-w2JtIQQXoRU-unsplash.jpg,0,NaN,NaN,NaN,chosen,2000,50,50
1234,0,202,3,3,1,gain6,no_gain6,I,K,40,37,body_parts,body_parts,Stimuli/Experimental_stims/body_parts/klara-kulikova-TcUfF24fUMY-unsplash.jpg,Stimuli/Experimental_stims/body_parts/engin-akyurt-Q2rfH3GW39c-unsplash.jpg,0,NaN,NaN,NaN,chosen,1500,50,50
1234,0,203,3,3,1,gain5,no_gain4,D,J,34,54,faces,objects,Stimuli/Experimental_stims/faces/olena-sergienko-0TSd6uCKTKc-unsplash.jpg,Stimuli/Experimental_stims/objects/jess-bailey-nOeVi8DsN8U-unsplash.jpg,0,NaN,NaN,NaN,unchosen,1000,50,50
1234,0,204,3,3,1,gain5,no_gain3,D,C,53,23,objects,outdoor_scenes,Stimuli/Experimental_stims/objects/insung-yoon-w2JtIQQXoRU-unsplash.jpg,Stimuli/Experimental_stims/outdoor_scenes/yuriy-bogdanov-W51VK3Obcj0-unsplash.jpg,0,NaN,NaN,NaN,chosen,1000,50,50
1234,0,205,3,3,1,gain2,no_gain1,G,A,58,18,objects,outdoor_scenes,Stimuli/Experimental_stims/objects/mockup-graphics-PNsj6RiHAF4-unsplash.jpg,Stimuli/Experimental_stims/outdoor_scenes/meng-ji-8BH_M-53CyA-unsplash.jpg,0,NaN,NaN,NaN,chosen,2000,50,50
1234,0,206,3,3,0,no_gain5,gain2,F,G,30,58,faces,objects,Stimuli/Experimental_stims/faces/good-faces-xmSWVeGEnJw-unsplash.jpg,Stimuli/Experimental_stims/objects/mockup-graphics-PNsj6RiHAF4-unsplash.jpg,0,NaN,NaN,NaN,chosen,1500,50,50
1234,0,207,3,3,1,gain4,no_gain4,L,J,39,26,body_parts,faces,Stimuli/Experimental_stims/body_parts/jonathan-borba-hTwH8QFkPMs-unsplash.jpg,Stimuli/Experimental_stims/faces/art-hauntington-jzY0KRJopEI-unsplash.jpg,0,NaN,NaN,NaN,chosen,1000,50,50
1234,0,208,3,3,1,gain1,no_gain4,B,J,29,54,faces,objects,Stimuli/Experimental_stims/faces/freddy-kearney-o-ioeoATbIM-unsplash.jpg,Stimuli/Experimental_stims/objects/jess-bailey-nOeVi8DsN8U-unsplash.jpg,0,NaN,NaN,NaN,unchosen,1500,50,50
1234,0,209,3,3,1,gain3,no_gain1,H,A,25,18,faces,outdoor_scenes,Stimuli/Experimental_stims/faces/aiony-haust-jmATI5Q_YgY-unsplash.jpg,Stimuli/Experimental_stims/outdoor_scenes/meng-ji-8BH_M-53CyA-unsplash.jpg,0,NaN,NaN,NaN,chosen,3500,50,50
1234,0,210,3,3,0,no_gain6,gain3,K,H,55,12,objects,outdoor_scenes,Stimuli/Experimental_stims/objects/jiangxulei1990-eIzzzwtkBjU-unsplash.jpg,Stimuli/Experimental_stims/outdoor_scenes/aleksandra-boguslawska-MS7KD9Ti7FQ-unsplash.jpg,0,NaN,NaN,NaN,unchosen,3000,50,50
1234,0,211,3,3,0,no_gain4,gain2,J,G,26,58,faces,objects,Stimuli/Experimental_stims/faces/art-hauntington-jzY0KRJopEI-unsplash.jpg,Stimuli/Experimental_stims/objects/mockup-graphics-PNsj6RiHAF4-unsplash.jpg,0,NaN,NaN,NaN,chosen,3000,50,50
1234,0,212,3,3,1,gain5,no_gain1,D,A,34,50,faces,objects,Stimuli/Experimental_stims/faces/olena-sergienko-0TSd6uCKTKc-unsplash.jpg,Stimuli/Experimental_stims/objects/andrew-petrov-TVJqDat4MAw-unsplash.jpg,0,NaN,NaN,NaN,unchosen,2000,50,50
1234,0,213,3,3,0,no_gain2,gain2,E,G,41,17,body_parts,outdoor_scenes,Stimuli/Experimental_stims/body_parts/lucaxx-freire-CacZwMexYdk-unsplash.jpg,Stimuli/Experimental_stims/outdoor_scenes/jeff-king-bJHWJeiHfHc-unsplash.jpg,0,NaN,NaN,NaN,unchosen,1000,50,50
1234,0,214,3,3,0,no_gain5,gain1,F,B,36,29,body_parts,faces,Stimuli/Experimental_stims/body_parts/callum-skelton-3KLMq7y46nA-unsplash.jpg,Stimuli/Experimental_stims/faces/freddy-kearney-o-ioeoATbIM-unsplash.jpg,0,NaN,NaN,NaN,unchosen,2000,50,50
1234,0,215,3,3,1,gain6,no_gain2,I,E,15,41,outdoor_scenes,body_parts,Stimuli/Experimental_stims/outdoor_scenes/henry-be-NLF6hTe4PAg-unsplash.jpg,Stimuli/Experimental_stims/body_parts/lucaxx-freire-CacZwMexYdk-unsplash.jpg,0,NaN,NaN,NaN,unchosen,1500,50,50
1234,0,216,3,3,0,no_gain5,gain6,F,I,30,40,faces,body_parts,Stimuli/Experimental_stims/faces/good-faces-xmSWVeGEnJw-unsplash.jpg,Stimuli/Experimental_stims/body_parts/klara-kulikova-TcUfF24fUMY-unsplash.jpg,0,NaN,NaN,NaN,chosen,1000,50,50
1234,0,217,3,3,1,gain2,no_gain3,G,C,58,23,objects,outdoor_scenes,Stimuli/Experimental_stims/objects/mockup-graphics-PNsj6RiHAF4-unsplash.jpg,Stimuli/Experimental_stims/outdoor_scenes/yuriy-bogdanov-W51VK3Obcj0-unsplash.jpg,0,NaN,NaN,NaN,chosen,1000,50,50
1234,0,218,3,3,1,gain6,no_gain2,I,E,40,48,body_parts,objects,Stimuli/Experimental_stims/body_parts/klara-kulikova-TcUfF24fUMY-unsplash.jpg,Stimuli/Experimental_stims/objects/alexander-andrews-JYGnB9gTCls-unsplash.jpg,0,NaN,NaN,NaN,chosen,1500,50,50
1234,0,219,3,3,1,gain1,no_gain2,B,E,22,48,outdoor_scenes,objects,Stimuli/Experimental_stims/outdoor_scenes/stephen-leonardi-gyIRjKPXupE-unsplash.jpg,Stimuli/Experimental_stims/objects/alexander-andrews-JYGnB9gTCls-unsplash.jpg,0,NaN,NaN,NaN,chosen,1000,50,50
1234,0,220,3,3,1,gain5,no_gain4,D,J,53,26,objects,faces,Stimuli/Experimental_stims/objects/insung-yoon-w2JtIQQXoRU-unsplash.jpg,Stimuli/Experimental_stims/faces/art-hauntington-jzY0KRJopEI-unsplash.jpg,0,NaN,NaN,NaN,chosen,2000,50,50
1234,0,221,4,4,0,no_gain4,gain5,J,D,26,53,faces,objects,Stimuli/Experimental_stims/faces/art-hauntington-jzY0KRJopEI-unsplash.jpg,Stimuli/Experimental_stims/objects/insung-yoon-w2JtIQQXoRU-unsplash.jpg,0,NaN,NaN,NaN,chosen,3500,50,50
1234,0,222,4,4,1,gain1,no_gain1,B,A,29,50,faces,objects,Stimuli/Experimental_stims/faces/freddy-kearney-o-ioeoATbIM-unsplash.jpg,Stimuli/Experimental_stims/objects/andrew-petrov-TVJqDat4MAw-unsplash.jpg,0,NaN,NaN,NaN,unchosen,1000,50,50
1234,0,223,4,4,0,no_gain5,gain4,F,L,30,39,faces,body_parts,Stimuli/Experimental_stims/faces/good-faces-xmSWVeGEnJw-unsplash.jpg,Stimuli/Experimental_stims/body_parts/jonathan-borba-hTwH8QFkPMs-unsplash.jpg,0,NaN,NaN,NaN,chosen,3500,50,50
1234,0,224,4,4,0,no_gain2,gain1,E,B,48,22,objects,outdoor_scenes,Stimuli/Experimental_stims/objects/alexander-andrews-JYGnB9gTCls-unsplash.jpg,Stimuli/Experimental_stims/outdoor_scenes/stephen-leonardi-gyIRjKPXupE-unsplash.jpg,0,NaN,NaN,NaN,chosen,3000,50,50
1234,0,225,4,4,1,gain4,no_gain3,L,C,33,45,faces,body_parts,Stimuli/Experimental_stims/faces/leilani-angel-K84vnnzxmTQ-unsplash.jpg,Stimuli/Experimental_stims/body_parts/sincerely-media-7TBFwUQA6Xk-unsplash.jpg,0,NaN,NaN,NaN,unchosen,1500,50,50
1234,0,226,4,4,1,gain2,no_gain4,G,J,58,26,objects,faces,Stimuli/Experimental_stims/objects/mockup-graphics-PNsj6RiHAF4-unsplash.jpg,Stimuli/Experimental_stims/faces/art-hauntington-jzY0KRJopEI-unsplash.jpg,0,NaN,NaN,NaN,chosen,1500,50,50
1234,0,227,4,4,0,no_gain3,gain5,C,D,23,53,outdoor_scenes,objects,Stimuli/Experimental_stims/outdoor_scenes/yuriy-bogdanov-W51VK3Obcj0-unsplash.jpg,Stimuli/Experimental_stims/objects/insung-yoon-w2JtIQQXoRU-unsplash.jpg,0,NaN,NaN,NaN,chosen,1500,50,50
1234,0,228,4,4,1,gain1,no_gain3,B,C,22,23,outdoor_scenes,outdoor_scenes,Stimuli/Experimental_stims/outdoor_scenes/stephen-leonardi-gyIRjKPXupE-unsplash.jpg,Stimuli/Experimental_stims/outdoor_scenes/yuriy-bogdanov-W51VK3Obcj0-unsplash.jpg,0,NaN,NaN,NaN,chosen,3000,50,50
1234,0,229,4,4,0,no_gain1,gain5,A,D,18,53,outdoor_scenes,objects,Stimuli/Experimental_stims/outdoor_scenes/meng-ji-8BH_M-53CyA-unsplash.jpg,Stimuli/Experimental_stims/objects/insung-yoon-w2JtIQQXoRU-unsplash.jpg,0,NaN,NaN,NaN,chosen,1000,50,50
1234,0,230,4,4,0,no_gain3,gain3,C,H,45,12,body_parts,outdoor_scenes,Stimuli/Experimental_stims/body_parts/sincerely-media-7TBFwUQA6Xk-unsplash.jpg,Stimuli/Experimental_stims/outdoor_scenes/aleksandra-boguslawska-MS7KD9Ti7FQ-unsplash.jpg,0,NaN,NaN,NaN,unchosen,1000,50,50
1234,0,231,4,4,1,gain5,no_gain2,D,E,53,48,objects,objects,Stimuli/Experimental_stims/objects/insung-yoon-w2JtIQQXoRU-unsplash.jpg,Stimuli/Experimental_stims/objects/alexander-andrews-JYGnB9gTCls-unsplash.jpg,0,NaN,NaN,NaN,chosen,2000,50,50
1234,0,232,4,4,1,gain5,no_gain3,D,C,34,45,faces,body_parts,Stimuli/Experimental_stims/faces/olena-sergienko-0TSd6uCKTKc-unsplash.jpg,Stimuli/Experimental_stims/body_parts/sincerely-media-7TBFwUQA6Xk-unsplash.jpg,0,NaN,NaN,NaN,unchosen,1500,50,50
1234,0,233,4,4,1,gain3,no_gain1,H,A,12,50,outdoor_scenes,objects,Stimuli/Experimental_stims/outdoor_scenes/aleksandra-boguslawska-MS7KD9Ti7FQ-unsplash.jpg,Stimuli/Experimental_stims/objects/andrew-petrov-TVJqDat4MAw-unsplash.jpg,0,NaN,NaN,NaN,unchosen,2000,50,50
1234,0,234,4,4,0,no_gain5,gain6,F,I,36,15,body_parts,outdoor_scenes,Stimuli/Experimental_stims/body_parts/callum-skelton-3KLMq7y46nA-unsplash.jpg,Stimuli/Experimental_stims/outdoor_scenes/henry-be-NLF6hTe4PAg-unsplash.jpg,0,NaN,NaN,NaN,unchosen,1000,50,50
1234,0,235,4,4,0,no_gain1,gain6,A,I,50,15,objects,outdoor_scenes,Stimuli/Experimental_stims/objects/andrew-petrov-TVJqDat4MAw-unsplash.jpg,Stimuli/Experimental_stims/outdoor_scenes/henry-be-NLF6hTe4PAg-unsplash.jpg,0,NaN,NaN,NaN,unchosen,2000,50,50
1234,0,236,4,4,0,no_gain6,gain3,K,H,37,25,body_parts,faces,Stimuli/Experimental_stims/body_parts/engin-akyurt-Q2rfH3GW39c-unsplash.jpg,Stimuli/Experimental_stims/faces/aiony-haust-jmATI5Q_YgY-unsplash.jpg,0,NaN,NaN,NaN,chosen,1500,50,50
1234,0,237,4,4,0,no_gain2,gain2,E,G,41,17,body_parts,outdoor_scenes,Stimuli/Experimental_stims/body_parts/lucaxx-freire-CacZwMexYdk-unsplash.jpg,Stimuli/Experimental_stims/outdoor_scenes/jeff-king-bJHWJeiHfHc-unsplash.jpg,0,NaN,NaN,NaN,unchosen,3500,50,50
1234,0,238,4,4,1,gain2,no_gain6,G,K,58,37,objects,body_parts,Stimuli/Experimental_stims/objects/mockup-graphics-PNsj6RiHAF4-unsplash.jpg,Stimuli/Experimental_stims/body_parts/engin-akyurt-Q2rfH3GW39c-unsplash.jpg,0,NaN,NaN,NaN,chosen,1000,50,50
1234,0,239,4,4,0,no_gain6,gain5,K,D,55,34,objects,faces,Stimuli/Experimental_stims/objects/jiangxulei1990-eIzzzwtkBjU-unsplash.jpg,Stimuli/Experimental_stims/faces/olena-sergienko-0TSd6uCKTKc-unsplash.jpg,0,NaN,NaN,NaN,unchosen,1000,50,50
1234,0,240,4,4,0,no_gain3,gain1,C,B,45,29,body_parts,faces,Stimuli/Experimental_stims/body_parts/sincerely-media-7TBFwUQA6Xk-unsplash.jpg,Stimuli/Experimental_stims/faces/freddy-kearney-o-ioeoATbIM-unsplash.jpg,0,NaN,NaN,NaN,unchosen,3500,50,50
1234,0,241,4,4,1,gain3,no_gain1,H,A,25,18,faces,outdoor_scenes,Stimuli/Experimental_stims/faces/aiony-haust-jmATI5Q_YgY-unsplash.jpg,Stimuli/Experimental_stims/outdoor_scenes/meng-ji-8BH_M-53CyA-unsplash.jpg,0,NaN,NaN,NaN,chosen,1000,50,50
1234,0,242,4,4,0,no_gain6,gain1,K,B,55,29,objects,faces,Stimuli/Experimental_stims/objects/jiangxulei1990-eIzzzwtkBjU-unsplash.jpg,Stimuli/Experimental_stims/faces/freddy-kearney-o-ioeoATbIM-unsplash.jpg,0,NaN,NaN,NaN,unchosen,1000,50,50
1234,0,243,4,4,0,no_gain5,gain5,F,D,36,34,body_parts,faces,Stimuli/Experimental_stims/body_parts/callum-skelton-3KLMq7y46nA-unsplash.jpg,Stimuli/Experimental_stims/faces/olena-sergienko-0TSd6uCKTKc-unsplash.jpg,0,NaN,NaN,NaN,unchosen,1500,50,50
1234,0,244,4,4,1,gain4,no_gain3,L,C,39,23,body_parts,outdoor_scenes,Stimuli/Experimental_stims/body_parts/jonathan-borba-hTwH8QFkPMs-unsplash.jpg,Stimuli/Experimental_stims/outdoor_scenes/yuriy-bogdanov-W51VK3Obcj0-unsplash.jpg,0,NaN,NaN,NaN,chosen,1000,50,50
1234,0,245,4,4,0,no_gain1,gain1,A,B,18,22,outdoor_scenes,outdoor_scenes,Stimuli/Experimental_stims/outdoor_scenes/meng-ji-8BH_M-53CyA-unsplash.jpg,Stimuli/Experimental_stims/outdoor_scenes/stephen-leonardi-gyIRjKPXupE-unsplash.jpg,0,NaN,NaN,NaN,chosen,2000,50,50
1234,0,246,4,4,0,no_gain6,gain5,K,D,37,53,body_parts,objects,Stimuli/Experimental_stims/body_parts/engin-akyurt-Q2rfH3GW39c-unsplash.jpg,Stimuli/Experimental_stims/objects/insung-yoon-w2JtIQQXoRU-unsplash.jpg,0,NaN,NaN,NaN,chosen,2000,50,50
1234,0,247,4,4,1,gain3,no_gain2,H,E,12,41,outdoor_scenes,body_parts,Stimuli/Experimental_stims/outdoor_scenes/aleksandra-boguslawska-MS7KD9Ti7FQ-unsplash.jpg,Stimuli/Experimental_stims/body_parts/lucaxx-freire-CacZwMexYdk-unsplash.jpg,0,NaN,NaN,NaN,unchosen,3000,50,50
1234,0,248,4,4,1,gain4,no_gain6,L,K,39,37,body_parts,body_parts,Stimuli/Experimental_stims/body_parts/jonathan-borba-hTwH8QFkPMs-unsplash.jpg,Stimuli/Experimental_stims/body_parts/engin-akyurt-Q2rfH3GW39c-unsplash.jpg,0,NaN,NaN,NaN,chosen,1000,50,50
1234,0,249,4,4,0,no_gain6,gain6,K,I,55,15,objects,outdoor_scenes,Stimuli/Experimental_stims/objects/jiangxulei1990-eIzzzwtkBjU-unsplash.jpg,Stimuli/Experimental_stims/outdoor_scenes/henry-be-NLF6hTe4PAg-unsplash.jpg,0,NaN,NaN,NaN,unchosen,1500,50,50
1234,0,250,4,4,0,no_gain6,gain4,K,L,55,33,objects,faces,Stimuli/Experimental_stims/objects/jiangxulei1990-eIzzzwtkBjU-unsplash.jpg,Stimuli/Experimental_stims/faces/leilani-angel-K84vnnzxmTQ-unsplash.jpg,0,NaN,NaN,NaN,unchosen,3000,50,50
1234,0,251,4,4,1,gain4,no_gain2,L,E,33,41,faces,body_parts,Stimuli/Experimental_stims/faces/leilani-angel-K84vnnzxmTQ-unsplash.jpg,Stimuli/Experimental_stims/body_parts/lucaxx-freire-CacZwMexYdk-unsplash.jpg,0,NaN,NaN,NaN,unchosen,1000,50,50
1234,0,252,4,4,1,gain6,no_gain4,I,J,15,54,outdoor_scenes,objects,Stimuli/Experimental_stims/outdoor_scenes/henry-be-NLF6hTe4PAg-unsplash.jpg,Stimuli/Experimental_stims/objects/jess-bailey-nOeVi8DsN8U-unsplash.jpg,0,NaN,NaN,NaN,unchosen,1000,50,50
1234,0,253,4,4,1,gain2,no_gain3,G,C,58,23,objects,outdoor_scenes,Stimuli/Experimental_stims/objects/mockup-graphics-PNsj6RiHAF4-unsplash.jpg,Stimuli/Experimental_stims/outdoor_scenes/yuriy-bogdanov-W51VK3Obcj0-unsplash.jpg,0,NaN,NaN,NaN,chosen,1000,50,50
1234,0,254,4,4,1,gain2,no_gain3,G,C,17,45,outdoor_scenes,body_parts,Stimuli/Experimental_stims/outdoor_scenes/jeff-king-bJHWJeiHfHc-unsplash.jpg,Stimuli/Experimental_stims/body_parts/sincerely-media-7TBFwUQA6Xk-unsplash.jpg,0,NaN,NaN,NaN,unchosen,1000,50,50
1234,0,255,4,4,0,no_gain5,gain4,F,L,36,33,body_parts,faces,Stimuli/Experimental_stims/body_parts/callum-skelton-3KLMq7y46nA-unsplash.jpg,Stimuli/Experimental_stims/faces/leilani-angel-K84vnnzxmTQ-unsplash.jpg,0,NaN,NaN,NaN,unchosen,2000,50,50
1234,0,256,4,4,0,no_gain3,gain6,C,I,45,15,body_parts,outdoor_scenes,Stimuli/Experimental_stims/body_parts/sincerely-media-7TBFwUQA6Xk-unsplash.jpg,Stimuli/Experimental_stims/outdoor_scenes/henry-be-NLF6hTe4PAg-unsplash.jpg,0,NaN,NaN,NaN,unchosen,1500,50,50
1234,0,257,4,4,0,no_gain2,gain6,E,I,48,40,objects,body_parts,Stimuli/Experimental_stims/objects/alexander-andrews-JYGnB9gTCls-unsplash.jpg,Stimuli/Experimental_stims/body_parts/klara-kulikova-TcUfF24fUMY-unsplash.jpg,0,NaN,NaN,NaN,chosen,1500,50,50
1234,0,258,4,4,1,gain2,no_gain5,G,F,17,36,outdoor_scenes,body_parts,Stimuli/Experimental_stims/outdoor_scenes/jeff-king-bJHWJeiHfHc-unsplash.jpg,Stimuli/Experimental_stims/body_parts/callum-skelton-3KLMq7y46nA-unsplash.jpg,0,NaN,NaN,NaN,unchosen,1500,50,50
1234,0,259,4,4,1,gain2,no_gain2,G,E,58,48,objects,objects,Stimuli/Experimental_stims/objects/mockup-graphics-PNsj6RiHAF4-unsplash.jpg,Stimuli/Experimental_stims/objects/alexander-andrews-JYGnB9gTCls-unsplash.jpg,0,NaN,NaN,NaN,chosen,1000,50,50
1234,0,260,4,4,0,no_gain6,gain6,K,I,37,40,body_parts,body_parts,Stimuli/Experimental_stims/body_parts/engin-akyurt-Q2rfH3GW39c-unsplash.jpg,Stimuli/Experimental_stims/body_parts/klara-kulikova-TcUfF24fUMY-unsplash.jpg,0,NaN,NaN,NaN,chosen,1000,50,50
1234,0,261,4,4,0,no_gain5,gain5,F,D,30,53,faces,objects,Stimuli/Experimental_stims/faces/good-faces-xmSWVeGEnJw-unsplash.jpg,Stimuli/Experimental_stims/objects/insung-yoon-w2JtIQQXoRU-unsplash.jpg,0,NaN,NaN,NaN,chosen,1000,50,50
1234,0,262,4,4,1,gain4,no_gain1,L,A,33,50,faces,objects,Stimuli/Experimental_stims/faces/leilani-angel-K84vnnzxmTQ-unsplash.jpg,Stimuli/Experimental_stims/objects/andrew-petrov-TVJqDat4MAw-unsplash.jpg,0,NaN,NaN,NaN,unchosen,1000,50,50
1234,0,263,4,4,0,no_gain4,gain1,J,B,54,29,objects,faces,Stimuli/Experimental_stims/objects/jess-bailey-nOeVi8DsN8U-unsplash.jpg,Stimuli/Experimental_stims/faces/freddy-kearney-o-ioeoATbIM-unsplash.jpg,0,NaN,NaN,NaN,unchosen,2000,50,50
1234,0,264,4,4,0,no_gain4,gain4,J,L,26,39,faces,body_parts,Stimuli/Experimental_stims/faces/art-hauntington-jzY0KRJopEI-unsplash.jpg,Stimuli/Experimental_stims/body_parts/jonathan-borba-hTwH8QFkPMs-unsplash.jpg,0,NaN,NaN,NaN,chosen,2000,50,50
1234,0,265,4,4,1,gain4,no_gain2,L,E,39,48,body_parts,objects,Stimuli/Experimental_stims/body_parts/jonathan-borba-hTwH8QFkPMs-unsplash.jpg,Stimuli/Experimental_stims/objects/alexander-andrews-JYGnB9gTCls-unsplash.jpg,0,NaN,NaN,NaN,chosen,3000,50,50
1234,0,266,4,4,1,gain6,no_gain5,I,F,40,30,body_parts,faces,Stimuli/Experimental_stims/body_parts/klara-kulikova-TcUfF24fUMY-unsplash.jpg,Stimuli/Experimental_stims/faces/good-faces-xmSWVeGEnJw-unsplash.jpg,0,NaN,NaN,NaN,chosen,1500,50,50
1234,0,267,4,4,0,no_gain1,gain6,A,I,18,40,outdoor_scenes,body_parts,Stimuli/Experimental_stims/outdoor_scenes/meng-ji-8BH_M-53CyA-unsplash.jpg,Stimuli/Experimental_stims/body_parts/klara-kulikova-TcUfF24fUMY-unsplash.jpg,0,NaN,NaN,NaN,chosen,2000,50,50
1234,0,268,4,4,1,gain3,no_gain6,H,K,12,55,outdoor_scenes,objects,Stimuli/Experimental_stims/outdoor_scenes/aleksandra-boguslawska-MS7KD9Ti7FQ-unsplash.jpg,Stimuli/Experimental_stims/objects/jiangxulei1990-eIzzzwtkBjU-unsplash.jpg,0,NaN,NaN,NaN,unchosen,1500,50,50
1234,0,269,4,4,1,gain2,no_gain1,G,A,58,18,objects,outdoor_scenes,Stimuli/Experimental_stims/objects/mockup-graphics-PNsj6RiHAF4-unsplash.jpg,Stimuli/Experimental_stims/outdoor_scenes/meng-ji-8BH_M-53CyA-unsplash.jpg,0,NaN,NaN,NaN,chosen,1000,50,50
1234,0,270,4,4,1,gain5,no_gain2,D,E,34,41,faces,body_parts,Stimuli/Experimental_stims/faces/olena-sergienko-0TSd6uCKTKc-unsplash.jpg,Stimuli/Experimental_stims/body_parts/lucaxx-freire-CacZwMexYdk-unsplash.jpg,0,NaN,NaN,NaN,unchosen,1000,50,50
1234,0,271,4,4,1,gain6,no_gain4,I,J,40,26,body_parts,faces,Stimuli/Experimental_stims/body_parts/klara-kulikova-TcUfF24fUMY-unsplash.jpg,Stimuli/Experimental_stims/faces/art-hauntington-jzY0KRJopEI-unsplash.jpg,0,NaN,NaN,NaN,chosen,2000,50,50
1234,0,272,4,4,1,gain2,no_gain1,G,A,17,50,outdoor_scenes,objects,Stimuli/Experimental_stims/outdoor_scenes/jeff-king-bJHWJeiHfHc-unsplash.jpg,Stimuli/Experimental_stims/objects/andrew-petrov-TVJqDat4MAw-unsplash.jpg,0,NaN,NaN,NaN,unchosen,1000,50,50
1234,0,273,4,4,0,no_gain4,gain3,J,H,54,12,objects,outdoor_scenes,Stimuli/Experimental_stims/objects/jess-bailey-nOeVi8DsN8U-unsplash.jpg,Stimuli/Experimental_stims/outdoor_scenes/aleksandra-boguslawska-MS7KD9Ti7FQ-unsplash.jpg,0,NaN,NaN,NaN,unchosen,1500,50,50
1234,0,274,4,4,1,gain4,no_gain4,L,J,33,54,faces,objects,Stimuli/Experimental_stims/faces/leilani-angel-K84vnnzxmTQ-unsplash.jpg,Stimuli/Experimental_stims/objects/jess-bailey-nOeVi8DsN8U-unsplash.jpg,0,NaN,NaN,NaN,unchosen,1000,50,50
1234,0,275,4,4,0,no_gain5,gain1,F,B,36,29,body_parts,faces,Stimuli/Experimental_stims/body_parts/callum-skelton-3KLMq7y46nA-unsplash.jpg,Stimuli/Experimental_stims/faces/freddy-kearney-o-ioeoATbIM-unsplash.jpg,0,NaN,NaN,NaN,unchosen,1000,50,50
1234,0,276,4,4,1,gain2,no_gain5,G,F,58,30,objects,faces,Stimuli/Experimental_stims/objects/mockup-graphics-PNsj6RiHAF4-unsplash.jpg,Stimuli/Experimental_stims/faces/good-faces-xmSWVeGEnJw-unsplash.jpg,0,NaN,NaN,NaN,chosen,3000,50,50
1234,0,277,4,4,1,gain1,no_gain5,B,F,22,30,outdoor_scenes,faces,Stimuli/Experimental_stims/outdoor_scenes/stephen-leonardi-gyIRjKPXupE-unsplash.jpg,Stimuli/Experimental_stims/faces/good-faces-xmSWVeGEnJw-unsplash.jpg,0,NaN,NaN,NaN,chosen,1500,50,50
1234,0,278,4,4,1,gain3,no_gain4,H,J,25,26,faces,faces,Stimuli/Experimental_stims/faces/aiony-haust-jmATI5Q_YgY-unsplash.jpg,Stimuli/Experimental_stims/faces/art-hauntington-jzY0KRJopEI-unsplash.jpg,0,NaN,NaN,NaN,chosen,1500,50,50
1234,0,279,4,4,0,no_gain3,gain3,C,H,23,25,outdoor_scenes,faces,Stimuli/Experimental_stims/outdoor_scenes/yuriy-bogdanov-W51VK3Obcj0-unsplash.jpg,Stimuli/Experimental_stims/faces/aiony-haust-jmATI5Q_YgY-unsplash.jpg,0,NaN,NaN,NaN,chosen,1000,50,50
1234,0,280,4,4,1,gain2,no_gain4,G,J,17,54,outdoor_scenes,objects,Stimuli/Experimental_stims/outdoor_scenes/jeff-king-bJHWJeiHfHc-unsplash.jpg,Stimuli/Experimental_stims/objects/jess-bailey-nOeVi8DsN8U-unsplash.jpg,0,NaN,NaN,NaN,unchosen,3000,50,50
1234,0,281,4,4,1,gain5,no_gain4,D,J,34,54,faces,objects,Stimuli/Experimental_stims/faces/olena-sergienko-0TSd6uCKTKc-unsplash.jpg,Stimuli/Experimental_stims/objects/jess-bailey-nOeVi8DsN8U-unsplash.jpg,0,NaN,NaN,NaN,unchosen,2000,50,50
1234,0,282,4,4,1,gain1,no_gain6,B,K,22,37,outdoor_scenes,body_parts,Stimuli/Experimental_stims/outdoor_scenes/stephen-leonardi-gyIRjKPXupE-unsplash.jpg,Stimuli/Experimental_stims/body_parts/engin-akyurt-Q2rfH3GW39c-unsplash.jpg,0,NaN,NaN,NaN,chosen,1500,50,50
1234,0,283,4,4,0,no_gain4,gain1,J,B,26,22,faces,outdoor_scenes,Stimuli/Experimental_stims/faces/art-hauntington-jzY0KRJopEI-unsplash.jpg,Stimuli/Experimental_stims/outdoor_scenes/stephen-leonardi-gyIRjKPXupE-unsplash.jpg,0,NaN,NaN,NaN,chosen,1000,50,50
1234,0,284,4,4,1,gain6,no_gain2,I,E,15,41,outdoor_scenes,body_parts,Stimuli/Experimental_stims/outdoor_scenes/henry-be-NLF6hTe4PAg-unsplash.jpg,Stimuli/Experimental_stims/body_parts/lucaxx-freire-CacZwMexYdk-unsplash.jpg,0,NaN,NaN,NaN,unchosen,2000,50,50
1234,0,285,4,4,0,no_gain5,gain3,F,H,36,12,body_parts,outdoor_scenes,Stimuli/Experimental_stims/body_parts/callum-skelton-3KLMq7y46nA-unsplash.jpg,Stimuli/Experimental_stims/outdoor_scenes/aleksandra-boguslawska-MS7KD9Ti7FQ-unsplash.jpg,0,NaN,NaN,NaN,unchosen,1500,50,50
1234,0,286,4,4,0,no_gain1,gain5,A,D,50,34,objects,faces,Stimuli/Experimental_stims/objects/andrew-petrov-TVJqDat4MAw-unsplash.jpg,Stimuli/Experimental_stims/faces/olena-sergienko-0TSd6uCKTKc-unsplash.jpg,0,NaN,NaN,NaN,unchosen,3000,50,50
1234,0,287,4,4,0,no_gain6,gain2,K,G,55,17,objects,outdoor_scenes,Stimuli/Experimental_stims/objects/jiangxulei1990-eIzzzwtkBjU-unsplash.jpg,Stimuli/Experimental_stims/outdoor_scenes/jeff-king-bJHWJeiHfHc-unsplash.jpg,0,NaN,NaN,NaN,unchosen,1000,50,50
1234,0,288,4,4,1,gain4,no_gain1,L,A,39,18,body_parts,outdoor_scenes,Stimuli/Experimental_stims/body_parts/jonathan-borba-hTwH8QFkPMs-unsplash.jpg,Stimuli/Experimental_stims/outdoor_scenes/meng-ji-8BH_M-53CyA-unsplash.jpg,0,NaN,NaN,NaN,chosen,1000,50,50
1234,0,289,4,4,0,no_gain3,gain6,C,I,23,40,outdoor_scenes,body_parts,Stimuli/Experimental_stims/outdoor_scenes/yuriy-bogdanov-W51VK3Obcj0-unsplash.jpg,Stimuli/Experimental_stims/body_parts/klara-kulikova-TcUfF24fUMY-unsplash.jpg,0,NaN,NaN,NaN,chosen,1500,50,50
1234,0,290,4,4,1,gain1,no_gain2,B,E,29,41,faces,body_parts,Stimuli/Experimental_stims/faces/freddy-kearney-o-ioeoATbIM-unsplash.jpg,Stimuli/Experimental_stims/body_parts/lucaxx-freire-CacZwMexYdk-unsplash.jpg,0,NaN,NaN,NaN,unchosen,1500,50,50
1234,0,291,4,4,0,no_gain2,gain3,E,H,48,25,objects,faces,Stimuli/Experimental_stims/objects/alexander-andrews-JYGnB9gTCls-unsplash.jpg,Stimuli/Experimental_stims/faces/aiony-haust-jmATI5Q_YgY-unsplash.jpg,0,NaN,NaN,NaN,chosen,1500,50,50
1234,0,292,4,4,0,no_gain5,gain3,F,H,30,25,faces,faces,Stimuli/Experimental_stims/faces/good-faces-xmSWVeGEnJw-unsplash.jpg,Stimuli/Experimental_stims/faces/aiony-haust-jmATI5Q_YgY-unsplash.jpg,0,NaN,NaN,NaN,chosen,1000,50,50