PID,practice,trial,iti,pair_id,pair_type,chosen_id,left_stimulus,right_stimulus,left_path,right_path,chosen_left,old_pair,pair_response,pair_acc,pair_rt,left_category,right_category
77131,1,1,1500,NaN,NaN,NaN,NA,NA,Stimuli/Practice_stims/Memory/annie-spratt-g9KFpAfQ5bc-unsplash.jpg,Stimuli/Practice_stims/Memory/charl-durand-bsfXvI25iNg-unsplash.jpg,NaN,NaN,NaN,NaN,NaN,NaN,NaN
77131,1,2,1000,NaN,NaN,NaN,NA,NA,Stimuli/Practice_stims/Memory/charl-durand-bsfXvI25iNg-unsplash.jpg,Stimuli/Practice_stims/Memory/jimmy-dean-Yn0l7uwBrpw-unsplash.jpg,NaN,NaN,NaN,NaN,NaN,NaN,NaN
77131,1,3,3000,NaN,NaN,NaN,NA,NA,Stimuli/Practice_stims/Memory/jimmy-dean-Yn0l7uwBrpw-unsplash.jpg,Stimuli/Practice_stims/Memory/annie-spratt-g9KFpAfQ5bc-unsplash.jpg,NaN,NaN,NaN,NaN,NaN,NaN,NaN
77131,0,4,1000,K,intact,K,38,50,Stimuli/Experimental_stims/body_parts/engin-akyurt-x_3gyC42btc-unsplash.jpg,Stimuli/Experimental_stims/objects/andrew-petrov-TVJqDat4MAw-unsplash.jpg,1,1,NaN,NaN,NaN,body_parts,objects
77131,0,5,1500,NaN,recombined,J,26,50,Stimuli/Experimental_stims/faces/art-hauntington-jzY0KRJopEI-unsplash.jpg,Stimuli/Experimental_stims/objects/andrew-petrov-TVJqDat4MAw-unsplash.jpg,1,0,NaN,NaN,NaN,faces,objects
77131,0,6,1500,E,intact,E,52,45,Stimuli/Experimental_stims/objects/fabian-blank-pElSkGRA2NU-unsplash.jpg,Stimuli/Experimental_stims/body_parts/sincerely-media-7TBFwUQA6Xk-unsplash.jpg,1,1,NaN,NaN,NaN,objects,body_parts
77131,0,7,1000,NaN,recombined,B,40,20,Stimuli/Experimental_stims/body_parts/klara-kulikova-TcUfF24fUMY-unsplash.jpg,Stimuli/Experimental_stims/outdoor_scenes/samsommer-vddccTqwal8-unsplash.jpg,0,0,NaN,NaN,NaN,body_parts,outdoor_scenes
77131,0,8,3000,H,intact,H,25,16,Stimuli/Experimental_stims/faces/aiony-haust-jmATI5Q_YgY-unsplash.jpg,Stimuli/Experimental_stims/outdoor_scenes/jarrett-kow-1ZOyYPOBn7I-unsplash.jpg,1,1,NaN,NaN,NaN,faces,outdoor_scenes
77131,0,9,3000,NaN,recombined,E,52,28,Stimuli/Experimental_stims/objects/fabian-blank-pElSkGRA2NU-unsplash.jpg,Stimuli/Experimental_stims/faces/erik-lucatero-d2MSDujJl2g-unsplash.jpg,1,0,NaN,NaN,NaN,objects,faces
77131,0,10,1000,L,intact,L,47,24,Stimuli/Experimental_stims/body_parts/tucker-good-36skLT5jZcc-unsplash.jpg,Stimuli/Experimental_stims/faces/abstral-official-cyOKLSgkgCE-unsplash.jpg,1,1,NaN,NaN,NaN,body_parts,faces
77131,0,11,3000,G,intact,G,56,18,Stimuli/Experimental_stims/objects/jonathan-greenaway-Y4hGgeiFn3s-unsplash.jpg,Stimuli/Experimental_stims/outdoor_scenes/meng-ji-8BH_M-53CyA-unsplash.jpg,1,1,NaN,NaN,NaN,objects,outdoor_scenes
77131,0,12,2000,NaN,recombined,L,15,47,Stimuli/Experimental_stims/outdoor_scenes/henry-be-NLF6hTe4PAg-unsplash.jpg,Stimuli/Experimental_stims/body_parts/tucker-good-36skLT5jZcc-unsplash.jpg,0,0,NaN,NaN,NaN,outdoor_scenes,body_parts
77131,0,13,2000,D,intact,D,53,28,Stimuli/Experimental_stims/objects/insung-yoon-w2JtIQQXoRU-unsplash.jpg,Stimuli/Experimental_stims/faces/erik-lucatero-d2MSDujJl2g-unsplash.jpg,1,1,NaN,NaN,NaN,objects,faces
77131,0,14,1500,F,intact,F,30,40,Stimuli/Experimental_stims/faces/good-faces-xmSWVeGEnJw-unsplash.jpg,Stimuli/Experimental_stims/body_parts/klara-kulikova-TcUfF24fUMY-unsplash.jpg,1,1,NaN,NaN,NaN,faces,body_parts
77131,0,15,1500,NaN,recombined,I,41,16,Stimuli/Experimental_stims/body_parts/lucaxx-freire-CacZwMexYdk-unsplash.jpg,Stimuli/Experimental_stims/outdoor_scenes/jarrett-kow-1ZOyYPOBn7I-unsplash.jpg,1,0,NaN,NaN,NaN,body_parts,outdoor_scenes
77131,0,16,1000,NaN,recombined,D,24,53,Stimuli/Experimental_stims/faces/abstral-official-cyOKLSgkgCE-unsplash.jpg,Stimuli/Experimental_stims/objects/insung-yoon-w2JtIQQXoRU-unsplash.jpg,0,0,NaN,NaN,NaN,faces,objects
77131,0,17,2000,C,intact,C,22,43,Stimuli/Experimental_stims/outdoor_scenes/stephen-leonardi-gyIRjKPXupE-unsplash.jpg,Stimuli/Experimental_stims/body_parts/megan-menegay-UojxG_BJxnI-unsplash.jpg,1,1,NaN,NaN,NaN,outdoor_scenes,body_parts
77131,0,18,3500,J,intact,J,26,59,Stimuli/Experimental_stims/faces/art-hauntington-jzY0KRJopEI-unsplash.jpg,Stimuli/Experimental_stims/objects/ronaldo-arthur-vidal-Cdz_lvnl37k-unsplash.jpg,1,1,NaN,NaN,NaN,faces,objects
77131,0,19,1500,NaN,recombined,G,32,56,Stimuli/Experimental_stims/faces/justin-chen-J7Cf1Gch49E-unsplash.jpg,Stimuli/Experimental_stims/objects/jonathan-greenaway-Y4hGgeiFn3s-unsplash.jpg,0,0,NaN,NaN,NaN,faces,objects
77131,0,20,2000,NaN,recombined,K,38,18,Stimuli/Experimental_stims/body_parts/engin-akyurt-x_3gyC42btc-unsplash.jpg,Stimuli/Experimental_stims/outdoor_scenes/meng-ji-8BH_M-53CyA-unsplash.jpg,1,0,NaN,NaN,NaN,body_parts,outdoor_scenes
77131,0,21,1000,NaN,recombined,A,43,13,Stimuli/Experimental_stims/body_parts/megan-menegay-UojxG_BJxnI-unsplash.jpg,Stimuli/Experimental_stims/outdoor_scenes/ashim-d-silva-S2Q5mdOrrVc-unsplash.jpg,0,0,NaN,NaN,NaN,body_parts,outdoor_scenes
77131,0,22,1000,A,intact,A,13,54,Stimuli/Experimental_stims/outdoor_scenes/ashim-d-silva-S2Q5mdOrrVc-unsplash.jpg,Stimuli/Experimental_stims/objects/jess-bailey-nOeVi8DsN8U-unsplash.jpg,1,1,NaN,NaN,NaN,outdoor_scenes,objects
77131,0,23,1000,NaN,recombined,C,22,45,Stimuli/Experimental_stims/outdoor_scenes/stephen-leonardi-gyIRjKPXupE-unsplash.jpg,Stimuli/Experimental_stims/body_parts/sincerely-media-7TBFwUQA6Xk-unsplash.jpg,1,0,NaN,NaN,NaN,outdoor_scenes,body_parts
77131,0,24,1000,B,intact,B,20,32,Stimuli/Experimental_stims/outdoor_scenes/samsommer-vddccTqwal8-unsplash.jpg,Stimuli/Experimental_stims/faces/justin-chen-J7Cf1Gch49E-unsplash.jpg,1,1,NaN,NaN,NaN,outdoor_scenes,faces
77131,0,25,3000,NaN,recombined,F,59,30,Stimuli/Experimental_stims/objects/ronaldo-arthur-vidal-Cdz_lvnl37k-unsplash.jpg,Stimuli/Experimental_stims/faces/good-faces-xmSWVeGEnJw-unsplash.jpg,0,0,NaN,NaN,NaN,objects,faces
77131,0,26,3500,I,intact,I,41,15,Stimuli/Experimental_stims/body_parts/lucaxx-freire-CacZwMexYdk-unsplash.jpg,Stimuli/Experimental_stims/outdoor_scenes/henry-be-NLF6hTe4PAg-unsplash.jpg,1,1,NaN,NaN,NaN,body_parts,outdoor_scenes
77131,0,27,1500,NaN,recombined,H,25,54,Stimuli/Experimental_stims/faces/aiony-haust-jmATI5Q_YgY-unsplash.jpg,Stimuli/Experimental_stims/objects/jess-bailey-nOeVi8DsN8U-unsplash.jpg,1,0,NaN,NaN,NaN,faces,objects