[{"init_locations":[{"src":"http://34.125.186.26/images/1_1.jpg","x":39,"y":100},{"src":"http://34.125.186.26/images/1_2.jpg","x":200,"y":100},{"src":"http://34.125.186.26/images/1_3.jpg","x":361,"y":100},{"src":"http://34.125.186.26/images/1_4.jpg","x":523,"y":100}],"moves":[{"src":"http://34.125.186.26/images/1_3.jpg","x":361,"y":338,"move_time":2151.7999999998137},{"src":"http://34.125.186.26/images/1_2.jpg","x":200,"y":338,"move_time":1515.6000000000931}],"final_locations":[{"final":{"src":"http://34.125.186.26/images/1_2.jpg","x":200,"y":338,"move_time":1515.6000000000931}}],"stars_time":[343.70000000018626],"end_time":[5090.800000000279],"rt":4747.100000000093,"trial_type":"order","trial_index":0,"time_elapsed":4752,"internal_node_id":"0.0-0.0","subject":1692134498793,"condition":"conditionA"},{"init_locations":[{"src":"http://34.125.186.26/images/1_5.jpg","x":39,"y":88},{"src":"http://34.125.186.26/images/1_6.jpg","x":200,"y":88},{"src":"http://34.125.186.26/images/1_7.jpg","x":361,"y":88},{"src":"http://34.125.186.26/images/1_8.jpg","x":523,"y":88}],"moves":[],"final_locations":[{}],"stars_time":[5091.800000000279],"end_time":[5278.700000000186],"rt":186.89999999990687,"trial_type":"order","trial_index":1,"time_elapsed":4940,"internal_node_id":"0.0-1.0","subject":1692134498793,"condition":"conditionA"},{"init_locations":[{"src":"http://34.125.186.26/images/2_1.jpg","x":39,"y":88},{"src":"http://34.125.186.26/images/2_2.jpg","x":200,"y":88},{"src":"http://34.125.186.26/images/2_3.jpg","x":361,"y":88},{"src":"http://34.125.186.26/images/2_4.jpg","x":523,"y":88}],"moves":[],"final_locations":[{}],"stars_time":[5279.600000000093],"end_time":[5488.800000000279],"rt":209.20000000018626,"trial_type":"order","trial_index":2,"time_elapsed":5150,"internal_node_id":"0.0-2.0","subject":1692134498793,"condition":"conditionA"},{"init_locations":[{"src":"http://34.125.186.26/images/2_5.jpg","x":39,"y":88},{"src":"http://34.125.186.26/images/2_6.jpg","x":200,"y":88},{"src":"http://34.125.186.26/images/2_7.jpg","x":361,"y":88},{"src":"http://34.125.186.26/images/2_8.jpg","x":523,"y":88}],"moves":[],"final_locations":[{}],"stars_time":[5489.5],"end_time":[5678.100000000093],"rt":188.60000000009313,"trial_type":"order","trial_index":3,"time_elapsed":5339,"internal_node_id":"0.0-3.0","subject":1692134498793,"condition":"conditionA"},{"init_locations":[{"src":"http://34.125.186.26/images/3_1.jpg","x":39,"y":88},{"src":"http://34.125.186.26/images/3_2.jpg","x":200,"y":88},{"src":"http://34.125.186.26/images/3_3.jpg","x":361,"y":88},{"src":"http://34.125.186.26/images/3_4.jpg","x":523,"y":88}],"moves":[],"final_locations":[{}],"stars_time":[5678.700000000186],"end_time":[5890.200000000186],"rt":211.5,"trial_type":"order","trial_index":4,"time_elapsed":5552,"internal_node_id":"0.0-4.0","subject":1692134498793,"condition":"conditionA"},{"init_locations":[{"src":"http://34.125.186.26/images/3_5.jpg","x":39,"y":88},{"src":"http://34.125.186.26/images/3_6.jpg","x":200,"y":88},{"src":"http://34.125.186.26/images/3_7.jpg","x":361,"y":88},{"src":"http://34.125.186.26/images/3_8.jpg","x":523,"y":88}],"moves":[],"final_locations":[{}],"stars_time":[5890.9000000003725],"end_time":[6118.100000000093],"rt":227.1999999997206,"trial_type":"order","trial_index":5,"time_elapsed":5779,"internal_node_id":"0.0-5.0","subject":1692134498793,"condition":"conditionA"},{"init_locations":[{"src":"http://34.125.186.26/images/4_1.jpg","x":39,"y":88},{"src":"http://34.125.186.26/images/4_2.jpg","x":200,"y":88},{"src":"http://34.125.186.26/images/4_3.jpg","x":361,"y":88},{"src":"http://34.125.186.26/images/4_4.jpg","x":523,"y":88}],"moves":[],"final_locations":[{}],"stars_time":[6118.700000000186],"end_time":[6322.4000000003725],"rt":203.70000000018626,"trial_type":"order","trial_index":6,"time_elapsed":5984,"internal_node_id":"0.0-6.0","subject":1692134498793,"condition":"conditionA"},{"init_locations":[{"src":"http://34.125.186.26/images/4_5.jpg","x":39,"y":88},{"src":"http://34.125.186.26/images/4_6.jpg","x":200,"y":88},{"src":"http://34.125.186.26/images/4_7.jpg","x":361,"y":88},{"src":"http://34.125.186.26/images/4_8.jpg","x":523,"y":88}],"moves":[],"final_locations":[{}],"stars_time":[6323.100000000093],"end_time":[6530.300000000279],"rt":207.20000000018626,"trial_type":"order","trial_index":7,"time_elapsed":6192,"internal_node_id":"0.0-7.0","subject":1692134498793,"condition":"conditionA"},{"init_locations":[{"src":"http://34.125.186.26/images/5_1.jpg","x":39,"y":88},{"src":"http://34.125.186.26/images/5_2.jpg","x":200,"y":88},{"src":"http://34.125.186.26/images/5_3.jpg","x":361,"y":88},{"src":"http://34.125.186.26/images/5_4.jpg","x":523,"y":88}],"moves":[],"final_locations":[{}],"stars_time":[6530.800000000279],"end_time":[6738.100000000093],"rt":207.29999999981374,"trial_type":"order","trial_index":8,"time_elapsed":6400,"internal_node_id":"0.0-8.0","subject":1692134498793,"condition":"conditionA"},{"init_locations":[{"src":"http://34.125.186.26/images/5_5.jpg","x":39,"y":88},{"src":"http://34.125.186.26/images/5_6.jpg","x":200,"y":88},{"src":"http://34.125.186.26/images/5_7.jpg","x":361,"y":88},{"src":"http://34.125.186.26/images/5_8.jpg","x":523,"y":88}],"moves":[],"final_locations":[{}],"stars_time":[6739],"end_time":[6946.200000000186],"rt":207.20000000018626,"trial_type":"order","trial_index":9,"time_elapsed":6608,"internal_node_id":"0.0-9.0","subject":1692134498793,"condition":"conditionA"},{"init_locations":[{"src":"http://34.125.186.26/images/6_1.jpg","x":39,"y":88},{"src":"http://34.125.186.26/images/6_2.jpg","x":200,"y":88},{"src":"http://34.125.186.26/images/6_3.jpg","x":361,"y":88},{"src":"http://34.125.186.26/images/6_4.jpg","x":523,"y":88}],"moves":[],"final_locations":[{}],"stars_time":[6946.700000000186],"end_time":[7142],"rt":195.29999999981374,"trial_type":"order","trial_index":10,"time_elapsed":6803,"internal_node_id":"0.0-10.0","subject":1692134498793,"condition":"conditionA"},{"init_locations":[{"src":"http://34.125.186.26/images/6_5.jpg","x":39,"y":88},{"src":"http://34.125.186.26/images/6_6.jpg","x":200,"y":88},{"src":"http://34.125.186.26/images/6_7.jpg","x":361,"y":88},{"src":"http://34.125.186.26/images/6_8.jpg","x":523,"y":88}],"moves":[],"final_locations":[{}],"stars_time":[7142.4000000003725],"end_time":[7346.4000000003725],"rt":204,"trial_type":"order","trial_index":11,"time_elapsed":7008,"internal_node_id":"0.0-11.0","subject":1692134498793,"condition":"conditionA"},{"init_locations":[{"src":"http://34.125.186.26/images/7_1.jpg","x":39,"y":88},{"src":"http://34.125.186.26/images/7_2.jpg","x":200,"y":88},{"src":"http://34.125.186.26/images/7_3.jpg","x":361,"y":88},{"src":"http://34.125.186.26/images/7_4.jpg","x":523,"y":88}],"moves":[],"final_locations":[{}],"stars_time":[7347.100000000093],"end_time":[7554.200000000186],"rt":207.10000000009313,"trial_type":"order","trial_index":12,"time_elapsed":7215,"internal_node_id":"0.0-12.0","subject":1692134498793,"condition":"conditionA"},{"init_locations":[{"src":"http://34.125.186.26/images/7_5.jpg","x":39,"y":88},{"src":"http://34.125.186.26/images/7_6.jpg","x":200,"y":88},{"src":"http://34.125.186.26/images/7_7.jpg","x":361,"y":88},{"src":"http://34.125.186.26/images/7_8.jpg","x":523,"y":88}],"moves":[],"final_locations":[{}],"stars_time":[7554.800000000279],"end_time":[7762.100000000093],"rt":207.29999999981374,"trial_type":"order","trial_index":13,"time_elapsed":7423,"internal_node_id":"0.0-13.0","subject":1692134498793,"condition":"conditionA"},{"init_locations":[{"src":"http://34.125.186.26/images/8_1.jpg","x":39,"y":88},{"src":"http://34.125.186.26/images/8_2.jpg","x":200,"y":88},{"src":"http://34.125.186.26/images/8_3.jpg","x":361,"y":88},{"src":"http://34.125.186.26/images/8_4.jpg","x":523,"y":88}],"moves":[],"final_locations":[{}],"stars_time":[7762.5],"end_time":[7986.100000000093],"rt":223.60000000009313,"trial_type":"order","trial_index":14,"time_elapsed":7647,"internal_node_id":"0.0-14.0","subject":1692134498793,"condition":"conditionA"},{"init_locations":[{"src":"http://34.125.186.26/images/8_5.jpg","x":39,"y":88},{"src":"http://34.125.186.26/images/8_6.jpg","x":200,"y":88},{"src":"http://34.125.186.26/images/8_7.jpg","x":361,"y":88},{"src":"http://34.125.186.26/images/8_8.jpg","x":523,"y":88}],"moves":[],"final_locations":[{}],"stars_time":[7986.800000000279],"end_time":[8210.5],"rt":223.6999999997206,"trial_type":"order","trial_index":15,"time_elapsed":7872,"internal_node_id":"0.0-15.0","subject":1692134498793,"condition":"conditionA"},{"init_locations":[{"src":"http://34.125.186.26/images/9_1.jpg","x":39,"y":88},{"src":"http://34.125.186.26/images/9_2.jpg","x":200,"y":88},{"src":"http://34.125.186.26/images/9_3.jpg","x":361,"y":88},{"src":"http://34.125.186.26/images/9_4.jpg","x":523,"y":88}],"moves":[],"final_locations":[{}],"stars_time":[8211.100000000093],"end_time":[8434.400000000373],"rt":223.3000000002794,"trial_type":"order","trial_index":16,"time_elapsed":8096,"internal_node_id":"0.0-16.0","subject":1692134498793,"condition":"conditionA"},{"init_locations":[{"src":"http://34.125.186.26/images/9_5.jpg","x":39,"y":88},{"src":"http://34.125.186.26/images/9_6.jpg","x":200,"y":88},{"src":"http://34.125.186.26/images/9_7.jpg","x":361,"y":88},{"src":"http://34.125.186.26/images/9_8.jpg","x":523,"y":88}],"moves":[],"final_locations":[{}],"stars_time":[8435],"end_time":[8646.30000000028],"rt":211.3000000002794,"trial_type":"order","trial_index":17,"time_elapsed":8308,"internal_node_id":"0.0-17.0","subject":1692134498793,"condition":"conditionA"},{"rt":2503.2000000001863,"stimulus":"<p>How difficult was it to order the pictures?</p>","button_pressed":"2","trial_type":"html-button-response","trial_index":18,"time_elapsed":10812,"internal_node_id":"0.0-18.0","subject":1692134498793,"condition":"conditionA"}]