[{"view_history":"[{\"page_index\":0,\"viewing_time\":2228.399999976158},{\"page_index\":1,\"viewing_time\":926.8000000119209},{\"page_index\":2,\"viewing_time\":690.3000000119209}]","rt":3846,"trial_type":"instructions","trial_index":0,"time_elapsed":3848,"internal_node_id":"0.0-0.0","subject":"8.7.2023, 1:03:24","condition":"conditionC"},{"rt":871.3000000119209,"responses":"{\"Q0\":\"\"}","trial_type":"survey-text","trial_index":1,"time_elapsed":4721,"internal_node_id":"0.0-1.0","subject":"8.7.2023, 1:03:24","condition":"conditionC"},{"view_history":"[{\"page_index\":0,\"viewing_time\":1087.0999999642372},{\"page_index\":1,\"viewing_time\":759.5},{\"page_index\":2,\"viewing_time\":1860.300000011921}]","rt":3707.199999988079,"trial_type":"instructions","trial_index":2,"time_elapsed":8429,"internal_node_id":"0.0-2.0","subject":"8.7.2023, 1:03:24","condition":"conditionC"},{"init_locations":[{"src":"http://34.125.186.26/images/test_3.jpg","x":12,"y":76},{"src":"http://34.125.186.26/images/test_4.jpg","x":174,"y":76},{"src":"http://34.125.186.26/images/test_1.jpg","x":335,"y":76},{"src":"http://34.125.186.26/images/test_2.jpg","x":496,"y":76}],"moves":[{"src":"http://34.125.186.26/images/test_4.jpg","x":174,"y":314,"move_time":1411.300000011921}],"final_locations":[{"final":{"src":"http://34.125.186.26/images/test_4.jpg","x":174,"y":314,"move_time":1411.300000011921}}],"stars_time":[9245.300000011921],"end_time":[13323.399999976158],"rt":4078.099999964237,"trial_type":"order","trial_index":3,"time_elapsed":12509,"internal_node_id":"0.0-3.0","subject":"8.7.2023, 1:03:24","condition":"conditionC"},{"view_history":"[{\"page_index\":0,\"viewing_time\":1662.199999988079}]","rt":1662.5,"trial_type":"instructions","trial_index":4,"time_elapsed":14173,"internal_node_id":"0.0-4.0","subject":"8.7.2023, 1:03:24","condition":"conditionC"},{"init_locations":[{"src":"http://34.125.186.26/images/2_5.jpg","x":12,"y":76},{"src":"http://34.125.186.26/images/2_6.jpg","x":174,"y":76},{"src":"http://34.125.186.26/images/2_7.jpg","x":335,"y":76},{"src":"http://34.125.186.26/images/2_8.jpg","x":496,"y":76}],"moves":[{"src":"http://34.125.186.26/images/2_6.jpg","x":174,"y":314,"move_time":1157.800000011921}],"final_locations":[{"final":{"src":"http://34.125.186.26/images/2_6.jpg","x":174,"y":314,"move_time":1157.800000011921}}],"stars_time":[14988.399999976158],"end_time":[18831.399999976158],"rt":3843,"trial_type":"order","trial_index":5,"time_elapsed":18017,"internal_node_id":"0.0-5.0","subject":"8.7.2023, 1:03:24","condition":"conditionC"},{"rt":1065.6000000238419,"stimulus":"<p>How difficult was it to order the pictures?</p>","button_pressed":"3","trial_type":"html-button-response","trial_index":6,"time_elapsed":19085,"internal_node_id":"0.0-6.0","subject":"8.7.2023, 1:03:24","condition":"conditionC"},{"rt":771,"responses":"{\"Q0\":\"\"}","trial_type":"survey-text","trial_index":7,"time_elapsed":19858,"internal_node_id":"0.0-7.0","subject":"8.7.2023, 1:03:24","condition":"conditionC"},{"init_locations":[{"src":"http://34.125.186.26/images/7_1.jpg","x":12,"y":76},{"src":"http://34.125.186.26/images/7_2.jpg","x":174,"y":76},{"src":"http://34.125.186.26/images/7_4.jpg","x":335,"y":76},{"src":"http://34.125.186.26/images/7_3.jpg","x":496,"y":76}],"moves":[{"src":"http://34.125.186.26/images/7_2.jpg","x":174,"y":314,"move_time":1349.3999999761581}],"final_locations":[{"final":{"src":"http://34.125.186.26/images/7_2.jpg","x":174,"y":314,"move_time":1349.3999999761581}}],"stars_time":[20673],"end_time":[24243.19999998808],"rt":3570.199999988079,"trial_type":"order","trial_index":8,"time_elapsed":23429,"internal_node_id":"0.0-8.0","subject":"8.7.2023, 1:03:24","condition":"conditionC"}]