[{"view_history":"[{\"page_index\":0,\"viewing_time\":2496.5},{\"page_index\":1,\"viewing_time\":415.90000000037253},{\"page_index\":2,\"viewing_time\":452}]","rt":3364.7000000001863,"trial_type":"instructions","trial_index":0,"time_elapsed":3367,"internal_node_id":"0.0-0.0","subject":"18.8.2023, 15:00:07","condition":"conditionB"},{"rt":2318.699999999255,"responses":"{\"Q0\":\"22\"}","trial_type":"survey-text","trial_index":1,"time_elapsed":5689,"internal_node_id":"0.0-1.0","subject":"18.8.2023, 15:00:07","condition":"conditionB"},{"view_history":"[{\"page_index\":0,\"viewing_time\":769.8999999994412},{\"page_index\":1,\"viewing_time\":544.2000000001863},{\"page_index\":2,\"viewing_time\":1779.9000000003725}]","rt":3094.2000000001863,"trial_type":"instructions","trial_index":2,"time_elapsed":8783,"internal_node_id":"0.0-2.0","subject":"18.8.2023, 15:00:07","condition":"conditionB"},{"tiles_id":"[\"test_3\",\"test_4\",\"test_1\",\"test_2\"]","moves":"[{\"src\":\"http://34.125.186.26/images/test_4.jpg\",\"x\":200,\"y\":338,\"move_time\":16736},{\"src\":\"http://34.125.186.26/images/test_3.jpg\",\"x\":39,\"y\":338,\"move_time\":6324},{\"src\":\"http://34.125.186.26/images/test_1.jpg\",\"x\":361,\"y\":338,\"move_time\":959},{\"src\":\"http://34.125.186.26/images/test_2.jpg\",\"x\":523,\"y\":338,\"move_time\":1332},{\"src\":\"http://34.125.186.26/images/test_1.jpg\",\"x\":39,\"y\":338,\"move_time\":2853},{\"src\":\"http://34.125.186.26/images/test_2.jpg\",\"x\":200,\"y\":338,\"move_time\":5416}]","final_locations":"[{\"src\":\"http://34.125.186.26/images/test_1.jpg\",\"x\":39,\"y\":338,\"move_time\":2853},{\"src\":\"http://34.125.186.26/images/test_3.jpg\",\"x\":39,\"y\":338,\"move_time\":6324},{\"src\":\"http://34.125.186.26/images/test_2.jpg\",\"x\":200,\"y\":338,\"move_time\":5416},{\"src\":\"http://34.125.186.26/images/test_4.jpg\",\"x\":200,\"y\":338,\"move_time\":16736}]","move_time":"0","rt":"36047.200000000186","trial_type":"order","trial_index":3,"time_elapsed":44832,"internal_node_id":"0.0-3.0","subject":"18.8.2023, 15:00:07","condition":"conditionB"},{"view_history":"[{\"page_index\":0,\"viewing_time\":999.2999999998137}]","rt":999.5,"trial_type":"instructions","trial_index":4,"time_elapsed":45831,"internal_node_id":"0.0-4.0","subject":"18.8.2023, 15:00:07","condition":"conditionB"},{"tiles_id":"[\"2_5\",\"2_6\",\"2_7\",\"2_8\"]","moves":"[{\"src\":\"http://34.125.186.26/images/2_5.jpg\",\"x\":39,\"y\":338,\"move_time\":1104},{\"src\":\"http://34.125.186.26/images/2_6.jpg\",\"x\":200,\"y\":338,\"move_time\":560},{\"src\":\"http://34.125.186.26/images/2_7.jpg\",\"x\":361,\"y\":338,\"move_time\":2158},{\"src\":\"http://34.125.186.26/images/2_8.jpg\",\"x\":523,\"y\":338,\"move_time\":3538}]","final_locations":"[{\"src\":\"http://34.125.186.26/images/2_5.jpg\",\"x\":39,\"y\":338,\"move_time\":1104},{\"src\":\"http://34.125.186.26/images/2_6.jpg\",\"x\":200,\"y\":338,\"move_time\":560},{\"src\":\"http://34.125.186.26/images/2_7.jpg\",\"x\":361,\"y\":338,\"move_time\":2158},{\"src\":\"http://34.125.186.26/images/2_8.jpg\",\"x\":523,\"y\":338,\"move_time\":3538}]","move_time":"0","rt":"8187.0999999996275","trial_type":"order","trial_index":5,"time_elapsed":54020,"internal_node_id":"0.0-5.0","subject":"18.8.2023, 15:00:07","condition":"conditionB"},{"rt":979.4000000003725,"stimulus":"<p>How difficult was it to order the pictures?</p>","button_pressed":"2","trial_type":"html-button-response","trial_index":6,"time_elapsed":55000,"internal_node_id":"0.0-6.0","subject":"18.8.2023, 15:00:07","condition":"conditionB"},{"rt":1124.2999999998137,"responses":"{\"Q0\":\"\"}","trial_type":"survey-text","trial_index":7,"time_elapsed":56128,"internal_node_id":"0.0-7.0","subject":"18.8.2023, 15:00:07","condition":"conditionB"},{"tiles_id":"[\"7_1\",\"7_2\",\"7_4\",\"7_3\"]","moves":"[{\"src\":\"http://34.125.186.26/images/7_1.jpg\",\"x\":39,\"y\":338,\"move_time\":1268},{\"src\":\"http://34.125.186.26/images/7_2.jpg\",\"x\":200,\"y\":338,\"move_time\":588},{\"src\":\"http://34.125.186.26/images/7_4.jpg\",\"x\":361,\"y\":338,\"move_time\":639},{\"src\":\"http://34.125.186.26/images/7_3.jpg\",\"x\":523,\"y\":338,\"move_time\":2275},{\"src\":\"http://34.125.186.26/images/7_3.jpg\",\"x\":361,\"y\":338,\"move_time\":7846},{\"src\":\"http://34.125.186.26/images/7_1.jpg\",\"x\":39,\"y\":338,\"move_time\":60382},{\"src\":\"http://34.125.186.26/images/7_2.jpg\",\"x\":200,\"y\":338,\"move_time\":12833},{\"src\":\"http://34.125.186.26/images/7_3.jpg\",\"x\":361,\"y\":338,\"move_time\":3277},{\"src\":\"http://34.125.186.26/images/7_4.jpg\",\"x\":523,\"y\":338,\"move_time\":2035},{\"src\":\"http://34.125.186.26/images/7_3.jpg\",\"x\":523,\"y\":338,\"move_time\":10022},{\"src\":\"http://34.125.186.26/images/7_4.jpg\",\"x\":361,\"y\":100,\"move_time\":1282},{\"src\":\"http://34.125.186.26/images/7_3.jpg\",\"x\":523,\"y\":100,\"move_time\":797},{\"src\":\"http://34.125.186.26/images/7_3.jpg\",\"x\":361,\"y\":338,\"move_time\":1426},{\"src\":\"http://34.125.186.26/images/7_4.jpg\",\"x\":523,\"y\":338,\"move_time\":1303},{\"src\":\"http://34.125.186.26/images/7_3.jpg\",\"x\":523,\"y\":338,\"move_time\":2786},{\"src\":\"http://34.125.186.26/images/7_3.jpg\",\"x\":361,\"y\":338,\"move_time\":20728}]","final_locations":"[{\"src\":\"http://34.125.186.26/images/7_1.jpg\",\"x\":39,\"y\":338,\"move_time\":60382},{\"src\":\"http://34.125.186.26/images/7_2.jpg\",\"x\":200,\"y\":338,\"move_time\":12833},{\"src\":\"http://34.125.186.26/images/7_3.jpg\",\"x\":361,\"y\":338,\"move_time\":20728},{\"src\":\"http://34.125.186.26/images/7_4.jpg\",\"x\":523,\"y\":338,\"move_time\":1303}]","move_time":"0","rt":"139787.2000000002","trial_type":"order","trial_index":8,"time_elapsed":195916,"internal_node_id":"0.0-8.0","subject":"18.8.2023, 15:00:07","condition":"conditionB"},{"rt":1159,"stimulus":"<p>How difficult was it to order the pictures?</p>","button_pressed":"4","trial_type":"html-button-response","trial_index":9,"time_elapsed":197076,"internal_node_id":"0.0-9.0","subject":"18.8.2023, 15:00:07","condition":"conditionB"},{"rt":1102,"responses":"{\"Q0\":\"\"}","trial_type":"survey-text","trial_index":10,"time_elapsed":198180,"internal_node_id":"0.0-10.0","subject":"18.8.2023, 15:00:07","condition":"conditionB"},{"tiles_id":"[\"2_5\",\"2_6\",\"2_7\",\"2_8\"]","moves":"[]","final_locations":"[]","move_time":"0","rt":"1058.9000000003725","trial_type":"order","trial_index":11,"time_elapsed":199239,"internal_node_id":"0.0-11.0","subject":"18.8.2023, 15:00:07","condition":"conditionB"},{"rt":927.5,"stimulus":"<p>How difficult was it to order the pictures?</p>","button_pressed":"3","trial_type":"html-button-response","trial_index":12,"time_elapsed":200168,"internal_node_id":"0.0-12.0","subject":"18.8.2023, 15:00:07","condition":"conditionB"},{"rt":718.3999999994412,"responses":"{\"Q0\":\"\"}","trial_type":"survey-text","trial_index":13,"time_elapsed":200887,"internal_node_id":"0.0-13.0","subject":"18.8.2023, 15:00:07","condition":"conditionB"},{"tiles_id":"[\"2_5\",\"2_6\",\"2_7\",\"2_8\"]","moves":"[]","final_locations":"[]","move_time":"0","rt":"1395.2000000001863","trial_type":"order","trial_index":14,"time_elapsed":202283,"internal_node_id":"0.0-14.0","subject":"18.8.2023, 15:00:07","condition":"conditionB"},{"rt":1279.2999999998137,"stimulus":"<p>How difficult was it to order the pictures?</p>","button_pressed":"3","trial_type":"html-button-response","trial_index":15,"time_elapsed":203563,"internal_node_id":"0.0-15.0","subject":"18.8.2023, 15:00:07","condition":"conditionB"},{"rt":815.1000000005588,"responses":"{\"Q0\":\"\"}","trial_type":"survey-text","trial_index":16,"time_elapsed":204380,"internal_node_id":"0.0-16.0","subject":"18.8.2023, 15:00:07","condition":"conditionB"},{"tiles_id":"[\"2_5\",\"2_6\",\"2_7\",\"2_8\"]","moves":"[]","final_locations":"[]","move_time":"0","rt":"1443.1000000005588","trial_type":"order","trial_index":17,"time_elapsed":205823,"internal_node_id":"0.0-17.0","subject":"18.8.2023, 15:00:07","condition":"conditionB"},{"rt":879.0999999996275,"stimulus":"<p>How difficult was it to order the pictures?</p>","button_pressed":"3","trial_type":"html-button-response","trial_index":18,"time_elapsed":206703,"internal_node_id":"0.0-18.0","subject":"18.8.2023, 15:00:07","condition":"conditionB"},{"rt":782.7999999998137,"responses":"{\"Q0\":\"\"}","trial_type":"survey-text","trial_index":19,"time_elapsed":207488,"internal_node_id":"0.0-19.0","subject":"18.8.2023, 15:00:07","condition":"conditionB"},{"tiles_id":"[\"2_5\",\"2_6\",\"2_7\",\"2_8\"]","moves":"[]","final_locations":"[]","move_time":"0","rt":"1491.5","trial_type":"order","trial_index":20,"time_elapsed":208980,"internal_node_id":"0.0-20.0","subject":"18.8.2023, 15:00:07","condition":"conditionB"},{"rt":1326.8999999994412,"stimulus":"<p>How difficult was it to order the pictures?</p>","button_pressed":"2","trial_type":"html-button-response","trial_index":21,"time_elapsed":210308,"internal_node_id":"0.0-21.0","subject":"18.8.2023, 15:00:07","condition":"conditionB"},{"rt":771.1000000005588,"responses":"{\"Q0\":\"\"}","trial_type":"survey-text","trial_index":22,"time_elapsed":211080,"internal_node_id":"0.0-22.0","subject":"18.8.2023, 15:00:07","condition":"conditionB"},{"tiles_id":"[\"2_5\",\"2_6\",\"2_7\",\"2_8\"]","moves":"[]","final_locations":"[]","move_time":"0","rt":"966.5999999996275","trial_type":"order","trial_index":23,"time_elapsed":212047,"internal_node_id":"0.0-23.0","subject":"18.8.2023, 15:00:07","condition":"conditionB"},{"rt":895.3999999994412,"stimulus":"<p>How difficult was it to order the pictures?</p>","button_pressed":"3","trial_type":"html-button-response","trial_index":24,"time_elapsed":212944,"internal_node_id":"0.0-24.0","subject":"18.8.2023, 15:00:07","condition":"conditionB"},{"rt":883.1000000005588,"responses":"{\"Q0\":\"\"}","trial_type":"survey-text","trial_index":25,"time_elapsed":213828,"internal_node_id":"0.0-25.0","subject":"18.8.2023, 15:00:07","condition":"conditionB"},{"tiles_id":"[\"2_5\",\"2_6\",\"2_7\",\"2_8\"]","moves":"[]","final_locations":"[]","move_time":"0","rt":"1038.8999999994412","trial_type":"order","trial_index":26,"time_elapsed":214867,"internal_node_id":"0.0-26.0","subject":"18.8.2023, 15:00:07","condition":"conditionB"},{"rt":991.9000000003725,"stimulus":"<p>How difficult was it to order the pictures?</p>","button_pressed":"4","trial_type":"html-button-response","trial_index":27,"time_elapsed":215860,"internal_node_id":"0.0-27.0","subject":"18.8.2023, 15:00:07","condition":"conditionB"},{"rt":834.2999999998137,"responses":"{\"Q0\":\"\"}","trial_type":"survey-text","trial_index":28,"time_elapsed":216696,"internal_node_id":"0.0-28.0","subject":"18.8.2023, 15:00:07","condition":"conditionB"}]