"view_history","rt","trial_type","trial_index","time_elapsed","internal_node_id","subject","condition","responses","tiles_id","moves","final_locations","move_time","stimulus","button_pressed"
"[{""page_index"":0,""viewing_time"":1073},{""page_index"":1,""viewing_time"":239.79999999981374},{""page_index"":2,""viewing_time"":256.09999999962747}]","1569.199999999255","instructions","0","1571","0.0-0.0","18.8.2023, 15:20:31","conditionB","","","","","","",""
"","2177.9000000003725","survey-text","1","3751","0.0-1.0","18.8.2023, 15:20:31","conditionB","{""Q0"":""21""}","","","","","",""
"[{""page_index"":0,""viewing_time"":911.0999999996275},{""page_index"":1,""viewing_time"":624},{""page_index"":2,""viewing_time"":1236}]","2771.2999999998137","instructions","2","6523","0.0-2.0","18.8.2023, 15:20:31","conditionB","","","","","","",""
"","3603.2000000001863","order","3","10127","0.0-3.0","18.8.2023, 15:20:31","conditionB","","[""test_3"",""test_4"",""test_1"",""test_2""]","[{""src"":""http://34.125.186.26/images/test_3.jpg"",""x"":316,""y"":338,""move_time"":1014},{""src"":""http://34.125.186.26/images/test_4.jpg"",""x"":477,""y"":338,""move_time"":654},{""src"":""http://34.125.186.26/images/test_1.jpg"",""x"":639,""y"":338,""move_time"":574},{""src"":""http://34.125.186.26/images/test_2.jpg"",""x"":800,""y"":338,""move_time"":564}]","[{""src"":""http://34.125.186.26/images/test_3.jpg"",""x"":316,""y"":338,""move_time"":1014},{""src"":""http://34.125.186.26/images/test_4.jpg"",""x"":477,""y"":338,""move_time"":654},{""src"":""http://34.125.186.26/images/test_1.jpg"",""x"":639,""y"":338,""move_time"":574},{""src"":""http://34.125.186.26/images/test_2.jpg"",""x"":800,""y"":338,""move_time"":564}]","0","",""
"[{""page_index"":0,""viewing_time"":967.5}]","967.6000000005588","instructions","4","11095","0.0-4.0","18.8.2023, 15:20:31","conditionB","","","","","","",""
"","6151.5","order","5","17247","0.0-5.0","18.8.2023, 15:20:31","conditionB","","[""2_5"",""2_6"",""2_7"",""2_8""]","[{""src"":""http://34.125.186.26/images/2_5.jpg"",""x"":316,""y"":338,""move_time"":968},{""src"":""http://34.125.186.26/images/2_6.jpg"",""x"":477,""y"":338,""move_time"":609},{""src"":""http://34.125.186.26/images/2_7.jpg"",""x"":639,""y"":338,""move_time"":528},{""src"":""http://34.125.186.26/images/2_8.jpg"",""x"":800,""y"":338,""move_time"":577},{""src"":""http://34.125.186.26/images/2_8.jpg"",""x"":800,""y"":100,""move_time"":526},{""src"":""http://34.125.186.26/images/2_7.jpg"",""x"":639,""y"":100,""move_time"":612},{""src"":""http://34.125.186.26/images/2_6.jpg"",""x"":477,""y"":100,""move_time"":721},{""src"":""http://34.125.186.26/images/2_5.jpg"",""x"":316,""y"":100,""move_time"":769}]","[{""src"":""http://34.125.186.26/images/2_5.jpg"",""x"":316,""y"":338,""move_time"":968},{""src"":""http://34.125.186.26/images/2_6.jpg"",""x"":477,""y"":338,""move_time"":609},{""src"":""http://34.125.186.26/images/2_7.jpg"",""x"":639,""y"":338,""move_time"":528},{""src"":""http://34.125.186.26/images/2_8.jpg"",""x"":800,""y"":338,""move_time"":577}]","0","",""
"","1107.2000000001863","html-button-response","6","18356","0.0-6.0","18.8.2023, 15:20:31","conditionB","","","","","","<p>How difficult was it to order the pictures?</p>","2"
"","654.2000000001863","survey-text","7","19011","0.0-7.0","18.8.2023, 15:20:31","conditionB","{""Q0"":""""}","","","","","",""
"","3955","order","8","22967","0.0-8.0","18.8.2023, 15:20:31","conditionB","","[""7_1"",""7_2"",""7_4"",""7_3""]","[{""src"":""http://34.125.186.26/images/7_4.jpg"",""x"":639,""y"":338,""move_time"":915},{""src"":""http://34.125.186.26/images/7_2.jpg"",""x"":477,""y"":338,""move_time"":643},{""src"":""http://34.125.186.26/images/7_1.jpg"",""x"":316,""y"":338,""move_time"":659},{""src"":""http://34.125.186.26/images/7_3.jpg"",""x"":800,""y"":338,""move_time"":783}]","[{""src"":""http://34.125.186.26/images/7_1.jpg"",""x"":316,""y"":338,""move_time"":659},{""src"":""http://34.125.186.26/images/7_2.jpg"",""x"":477,""y"":338,""move_time"":643},{""src"":""http://34.125.186.26/images/7_4.jpg"",""x"":639,""y"":338,""move_time"":915},{""src"":""http://34.125.186.26/images/7_3.jpg"",""x"":800,""y"":338,""move_time"":783}]","0","",""
"","995.5","html-button-response","9","23963","0.0-9.0","18.8.2023, 15:20:31","conditionB","","","","","","<p>How difficult was it to order the pictures?</p>","2"
"","727.3000000007451","survey-text","10","24692","0.0-10.0","18.8.2023, 15:20:31","conditionB","{""Q0"":""""}","","","","","",""
"","1406.7999999998137","order","11","26099","0.0-11.0","18.8.2023, 15:20:31","conditionB","","[""2_5"",""2_6"",""2_7"",""2_8""]","[{""src"":""http://34.125.186.26/images/2_6.jpg"",""x"":477,""y"":338,""move_time"":788}]","[{""src"":""http://34.125.186.26/images/2_6.jpg"",""x"":477,""y"":338,""move_time"":788}]","0","",""
"","835.6999999992549","html-button-response","12","26935","0.0-12.0","18.8.2023, 15:20:31","conditionB","","","","","","<p>How difficult was it to order the pictures?</p>","2"
"","750.3999999994412","survey-text","13","27687","0.0-13.0","18.8.2023, 15:20:31","conditionB","{""Q0"":""""}","","","","","",""
"","2291.5","order","14","29979","0.0-14.0","18.8.2023, 15:20:31","conditionB","","[""2_5"",""2_6"",""2_7"",""2_8""]","[{""src"":""http://34.125.186.26/images/2_6.jpg"",""x"":477,""y"":338,""move_time"":884}]","[{""src"":""http://34.125.186.26/images/2_6.jpg"",""x"":477,""y"":338,""move_time"":884}]","0","",""
"","1199","html-button-response","15","31179","0.0-15.0","18.8.2023, 15:20:31","conditionB","","","","","","<p>How difficult was it to order the pictures?</p>","3"
"","815.1000000005588","survey-text","16","31995","0.0-16.0","18.8.2023, 15:20:31","conditionB","{""Q0"":""""}","","","","","",""
"","1458.8999999994412","order","17","33455","0.0-17.0","18.8.2023, 15:20:31","conditionB","","[""2_5"",""2_6"",""2_7"",""2_8""]","[{""src"":""http://34.125.186.26/images/2_7.jpg"",""x"":639,""y"":338,""move_time"":792}]","[{""src"":""http://34.125.186.26/images/2_7.jpg"",""x"":639,""y"":338,""move_time"":792}]","0","",""
"","895.5","html-button-response","18","34351","0.0-18.0","18.8.2023, 15:20:31","conditionB","","","","","","<p>How difficult was it to order the pictures?</p>","2"
"","910.7999999998137","survey-text","19","35263","0.0-19.0","18.8.2023, 15:20:31","conditionB","{""Q0"":""""}","","","","","",""
"","1683.2999999998137","order","20","36947","0.0-20.0","18.8.2023, 15:20:31","conditionB","","[""2_5"",""2_6"",""2_7"",""2_8""]","[{""src"":""http://34.125.186.26/images/2_6.jpg"",""x"":477,""y"":338,""move_time"":841}]","[{""src"":""http://34.125.186.26/images/2_6.jpg"",""x"":477,""y"":338,""move_time"":841}]","0","",""
"","846.9000000003725","html-button-response","21","37795","0.0-21.0","18.8.2023, 15:20:31","conditionB","","","","","","<p>How difficult was it to order the pictures?</p>","2"
"","1091.2000000001863","survey-text","22","38887","0.0-22.0","18.8.2023, 15:20:31","conditionB","{""Q0"":""""}","","","","","",""
"","1862.4000000003725","order","23","40751","0.0-23.0","18.8.2023, 15:20:31","conditionB","","[""2_5"",""2_6"",""2_7"",""2_8""]","[{""src"":""http://34.125.186.26/images/2_6.jpg"",""x"":477,""y"":338,""move_time"":842}]","[{""src"":""http://34.125.186.26/images/2_6.jpg"",""x"":477,""y"":338,""move_time"":842}]","0","",""
"","879.3000000007451","html-button-response","24","41631","0.0-24.0","18.8.2023, 15:20:31","conditionB","","","","","","<p>How difficult was it to order the pictures?</p>","2"
"","771.3999999994412","survey-text","25","42403","0.0-25.0","18.8.2023, 15:20:31","conditionB","{""Q0"":""""}","","","","","",""
"","1822.5999999996275","order","26","44227","0.0-26.0","18.8.2023, 15:20:31","conditionB","","[""2_5"",""2_6"",""2_7"",""2_8""]","[{""src"":""http://34.125.186.26/images/2_7.jpg"",""x"":639,""y"":338,""move_time"":805}]","[{""src"":""http://34.125.186.26/images/2_7.jpg"",""x"":639,""y"":338,""move_time"":805}]","0","",""
"","916","html-button-response","27","45143","0.0-27.0","18.8.2023, 15:20:31","conditionB","","","","","","<p>How difficult was it to order the pictures?</p>","4"
"","1182.9000000003725","survey-text","28","46327","0.0-28.0","18.8.2023, 15:20:31","conditionB","{""Q0"":""""}","","","","","",""
