[{"view_history":"[{\"page_index\":0,\"viewing_time\":1751.7000000001863},{\"page_index\":1,\"viewing_time\":223.60000000009313},{\"page_index\":2,\"viewing_time\":192}]","rt":2167.7000000001863,"trial_type":"instructions","trial_index":0,"time_elapsed":2172,"internal_node_id":"0.0-0.0","subject":"15.8.2023, 17:34:01","condition":"conditionC"},{"rt":1581.4000000003725,"responses":"{\"Q0\":\"21\"}","trial_type":"survey-text","trial_index":1,"time_elapsed":3756,"internal_node_id":"0.0-1.0","subject":"15.8.2023, 17:34:01","condition":"conditionC"},{"view_history":"[{\"page_index\":0,\"viewing_time\":763.1000000000931},{\"page_index\":1,\"viewing_time\":559.7999999998137},{\"page_index\":2,\"viewing_time\":1876.3999999999069}]","rt":3199.5,"trial_type":"instructions","trial_index":2,"time_elapsed":6956,"internal_node_id":"0.0-2.0","subject":"15.8.2023, 17:34:01","condition":"conditionC"},{"init_locations":[{"src":"http://34.125.186.26/images/test_3.jpg","x":39,"y":100},{"src":"http://34.125.186.26/images/test_4.jpg","x":200,"y":100},{"src":"http://34.125.186.26/images/test_1.jpg","x":361,"y":100},{"src":"http://34.125.186.26/images/test_2.jpg","x":523,"y":100}],"moves":[{"src":"http://34.125.186.26/images/test_1.jpg","x":361,"y":338,"move_time":1266.7000000001863}],"final_locations":[{"final":{"src":"http://34.125.186.26/images/test_1.jpg","x":361,"y":338,"move_time":1266.7000000001863}}],"stars_time":[7292.799999999814],"end_time":[9515.5],"rt":2222.7000000001863,"trial_type":"order","trial_index":3,"time_elapsed":9180,"internal_node_id":"0.0-3.0","subject":"15.8.2023, 17:34:01","condition":"conditionC"},{"view_history":"[{\"page_index\":0,\"viewing_time\":947.3000000002794}]","rt":947.4000000003725,"trial_type":"instructions","trial_index":4,"time_elapsed":10128,"internal_node_id":"0.0-4.0","subject":"15.8.2023, 17:34:01","condition":"conditionC"},{"init_locations":[{"src":"http://34.125.186.26/images/2_5.jpg","x":39,"y":100},{"src":"http://34.125.186.26/images/2_6.jpg","x":200,"y":100},{"src":"http://34.125.186.26/images/2_7.jpg","x":361,"y":100},{"src":"http://34.125.186.26/images/2_8.jpg","x":523,"y":100}],"moves":[{"src":"http://34.125.186.26/images/2_7.jpg","x":361,"y":338,"move_time":1106.2999999998137}],"final_locations":[{"final":{"src":"http://34.125.186.26/images/2_7.jpg","x":361,"y":338,"move_time":1106.2999999998137}}],"stars_time":[10464],"end_time":[12831.399999999907],"rt":2367.399999999907,"trial_type":"order","trial_index":5,"time_elapsed":12496,"internal_node_id":"0.0-5.0","subject":"15.8.2023, 17:34:01","condition":"conditionC"},{"rt":1283.0999999996275,"stimulus":"<p>How difficult was it to order the pictures?</p>","button_pressed":"3","trial_type":"html-button-response","trial_index":6,"time_elapsed":13780,"internal_node_id":"0.0-6.0","subject":"15.8.2023, 17:34:01","condition":"conditionC"},{"rt":193590.1000000001,"responses":"{\"Q0\":\"\"}","trial_type":"survey-text","trial_index":7,"time_elapsed":207372,"internal_node_id":"0.0-7.0","subject":"15.8.2023, 17:34:01","condition":"conditionC"},{"init_locations":[{"src":"http://34.125.186.26/images/7_1.jpg","x":39,"y":100},{"src":"http://34.125.186.26/images/7_2.jpg","x":200,"y":100},{"src":"http://34.125.186.26/images/7_4.jpg","x":361,"y":100},{"src":"http://34.125.186.26/images/7_3.jpg","x":523,"y":100}],"moves":[{"src":"http://34.125.186.26/images/7_4.jpg","x":361,"y":338,"move_time":1425.6000000000931}],"final_locations":[{"final":{"src":"http://34.125.186.26/images/7_4.jpg","x":361,"y":338,"move_time":1425.6000000000931}}],"stars_time":[207708.2999999998],"end_time":[210047.19999999972],"rt":2338.899999999907,"trial_type":"order","trial_index":8,"time_elapsed":209712,"internal_node_id":"0.0-8.0","subject":"15.8.2023, 17:34:01","condition":"conditionC"},{"rt":959.1999999997206,"stimulus":"<p>How difficult was it to order the pictures?</p>","button_pressed":"2","trial_type":"html-button-response","trial_index":9,"time_elapsed":210672,"internal_node_id":"0.0-9.0","subject":"15.8.2023, 17:34:01","condition":"conditionC"},{"rt":686.7000000001863,"responses":"{\"Q0\":\"\"}","trial_type":"survey-text","trial_index":10,"time_elapsed":211360,"internal_node_id":"0.0-10.0","subject":"15.8.2023, 17:34:01","condition":"conditionC"}]