[{"init_locations":[{"src":"http://34.125.186.26/images/1_1.jpg","x":40,"y":103},{"src":"http://34.125.186.26/images/1_2.jpg","x":201,"y":103},{"src":"http://34.125.186.26/images/1_3.jpg","x":362,"y":103},{"src":"http://34.125.186.26/images/1_4.jpg","x":524,"y":103}],"moves":[{"src":"http://34.125.186.26/images/1_3.jpg","x":362,"y":341,"move_time":1409.3999999761581}],"final_locations":[{"final":{"src":"http://34.125.186.26/images/1_3.jpg","x":362,"y":341,"move_time":1409.3999999761581}}],"stars_time":[425.60000002384186],"end_time":[3370.5],"rt":2944.899999976158,"trial_type":"order","trial_index":0,"time_elapsed":2949,"internal_node_id":"0.0-0.0","subject":1688674018827,"condition":"conditionA"},{"init_locations":[{"src":"http://34.125.186.26/images/1_5.jpg","x":40,"y":91},{"src":"http://34.125.186.26/images/1_6.jpg","x":201,"y":91},{"src":"http://34.125.186.26/images/1_7.jpg","x":362,"y":91},{"src":"http://34.125.186.26/images/1_8.jpg","x":524,"y":91}],"moves":[],"final_locations":[{}],"stars_time":[3371.899999976158],"end_time":[3529.899999976158],"rt":158,"trial_type":"order","trial_index":1,"time_elapsed":3108,"internal_node_id":"0.0-1.0","subject":1688674018827,"condition":"conditionA"},{"init_locations":[{"src":"http://34.125.186.26/images/2_1.jpg","x":40,"y":91},{"src":"http://34.125.186.26/images/2_2.jpg","x":201,"y":91},{"src":"http://34.125.186.26/images/2_3.jpg","x":362,"y":91},{"src":"http://34.125.186.26/images/2_4.jpg","x":524,"y":91}],"moves":[],"final_locations":[{}],"stars_time":[3530.600000023842],"end_time":[3705.800000011921],"rt":175.19999998807907,"trial_type":"order","trial_index":2,"time_elapsed":3284,"internal_node_id":"0.0-2.0","subject":1688674018827,"condition":"conditionA"},{"init_locations":[{"src":"http://34.125.186.26/images/2_5.jpg","x":40,"y":91},{"src":"http://34.125.186.26/images/2_6.jpg","x":201,"y":91},{"src":"http://34.125.186.26/images/2_7.jpg","x":362,"y":91},{"src":"http://34.125.186.26/images/2_8.jpg","x":524,"y":91}],"moves":[],"final_locations":[{}],"stars_time":[3706.800000011921],"end_time":[3994.5],"rt":287.69999998807907,"trial_type":"order","trial_index":3,"time_elapsed":3573,"internal_node_id":"0.0-3.0","subject":1688674018827,"condition":"conditionA"},{"init_locations":[{"src":"http://34.125.186.26/images/3_1.jpg","x":40,"y":91},{"src":"http://34.125.186.26/images/3_2.jpg","x":201,"y":91},{"src":"http://34.125.186.26/images/3_3.jpg","x":362,"y":91},{"src":"http://34.125.186.26/images/3_4.jpg","x":524,"y":91}],"moves":[{"src":"http://34.125.186.26/images/3_2.jpg","x":201,"y":341,"move_time":1108.5999999642372},{"src":"http://34.125.186.26/images/3_1.jpg","x":40,"y":341,"move_time":1057.1000000238419},{"src":"http://34.125.186.26/images/3_3.jpg","x":362,"y":341,"move_time":1268.6000000238419},{"src":"http://34.125.186.26/images/3_4.jpg","x":524,"y":341,"move_time":789.2999999523163}],"final_locations":[{"final":{"src":"http://34.125.186.26/images/3_4.jpg","x":524,"y":341,"move_time":789.2999999523163}}],"stars_time":[3995.300000011921],"end_time":[9110.100000023842],"rt":5114.800000011921,"trial_type":"order","trial_index":4,"time_elapsed":8688,"internal_node_id":"0.0-4.0","subject":1688674018827,"condition":"conditionA"},{"init_locations":[{"src":"http://34.125.186.26/images/3_5.jpg","x":40,"y":91},{"src":"http://34.125.186.26/images/3_6.jpg","x":201,"y":91},{"src":"http://34.125.186.26/images/3_7.jpg","x":362,"y":91},{"src":"http://34.125.186.26/images/3_8.jpg","x":524,"y":91}],"moves":[],"final_locations":[{}],"stars_time":[9111.399999976158],"end_time":[9285.800000011921],"rt":174.4000000357628,"trial_type":"order","trial_index":5,"time_elapsed":8864,"internal_node_id":"0.0-5.0","subject":1688674018827,"condition":"conditionA"},{"init_locations":[{"src":"http://34.125.186.26/images/4_1.jpg","x":40,"y":91},{"src":"http://34.125.186.26/images/4_2.jpg","x":201,"y":91},{"src":"http://34.125.186.26/images/4_3.jpg","x":362,"y":91},{"src":"http://34.125.186.26/images/4_4.jpg","x":524,"y":91}],"moves":[],"final_locations":[{}],"stars_time":[9286.800000011921],"end_time":[9510.199999988079],"rt":223.39999997615814,"trial_type":"order","trial_index":6,"time_elapsed":9088,"internal_node_id":"0.0-6.0","subject":1688674018827,"condition":"conditionA"},{"init_locations":[{"src":"http://34.125.186.26/images/4_5.jpg","x":40,"y":91},{"src":"http://34.125.186.26/images/4_6.jpg","x":201,"y":91},{"src":"http://34.125.186.26/images/4_7.jpg","x":362,"y":91},{"src":"http://34.125.186.26/images/4_8.jpg","x":524,"y":91}],"moves":[],"final_locations":[{}],"stars_time":[9511],"end_time":[9702.300000011921],"rt":191.30000001192093,"trial_type":"order","trial_index":7,"time_elapsed":9280,"internal_node_id":"0.0-7.0","subject":1688674018827,"condition":"conditionA"},{"init_locations":[{"src":"http://34.125.186.26/images/5_1.jpg","x":40,"y":91},{"src":"http://34.125.186.26/images/5_2.jpg","x":201,"y":91},{"src":"http://34.125.186.26/images/5_3.jpg","x":362,"y":91},{"src":"http://34.125.186.26/images/5_4.jpg","x":524,"y":91}],"moves":[],"final_locations":[{}],"stars_time":[9703.100000023842],"end_time":[9846.699999988079],"rt":143.5999999642372,"trial_type":"order","trial_index":8,"time_elapsed":9425,"internal_node_id":"0.0-8.0","subject":1688674018827,"condition":"conditionA"},{"init_locations":[{"src":"http://34.125.186.26/images/5_5.jpg","x":40,"y":91},{"src":"http://34.125.186.26/images/5_6.jpg","x":201,"y":91},{"src":"http://34.125.186.26/images/5_7.jpg","x":362,"y":91},{"src":"http://34.125.186.26/images/5_8.jpg","x":524,"y":91}],"moves":[{"src":"http://34.125.186.26/images/5_6.jpg","x":201,"y":341,"move_time":983.6999999880791},{"src":"http://34.125.186.26/images/5_5.jpg","x":40,"y":341,"move_time":1199.800000011921},{"src":"http://34.125.186.26/images/5_7.jpg","x":362,"y":341,"move_time":918.1000000238419},{"src":"http://34.125.186.26/images/5_8.jpg","x":524,"y":341,"move_time":1282.5999999642372}],"final_locations":[{"final":{"src":"http://34.125.186.26/images/5_8.jpg","x":524,"y":341,"move_time":1282.5999999642372}}],"stars_time":[9847.699999988079],"end_time":[15070.399999976158],"rt":5222.699999988079,"trial_type":"order","trial_index":9,"time_elapsed":14649,"internal_node_id":"0.0-9.0","subject":1688674018827,"condition":"conditionA"},{"init_locations":[{"src":"http://34.125.186.26/images/6_1.jpg","x":40,"y":91},{"src":"http://34.125.186.26/images/6_2.jpg","x":201,"y":91},{"src":"http://34.125.186.26/images/6_3.jpg","x":362,"y":91},{"src":"http://34.125.186.26/images/6_4.jpg","x":524,"y":91}],"moves":[],"final_locations":[{}],"stars_time":[15071.800000011921],"end_time":[15262.199999988079],"rt":190.39999997615814,"trial_type":"order","trial_index":10,"time_elapsed":14840,"internal_node_id":"0.0-10.0","subject":1688674018827,"condition":"conditionA"},{"init_locations":[{"src":"http://34.125.186.26/images/6_5.jpg","x":40,"y":91},{"src":"http://34.125.186.26/images/6_6.jpg","x":201,"y":91},{"src":"http://34.125.186.26/images/6_7.jpg","x":362,"y":91},{"src":"http://34.125.186.26/images/6_8.jpg","x":524,"y":91}],"moves":[{"src":"http://34.125.186.26/images/6_5.jpg","x":40,"y":341,"move_time":1124.3999999761581},{"src":"http://34.125.186.26/images/6_6.jpg","x":201,"y":341,"move_time":853},{"src":"http://34.125.186.26/images/6_5.jpg","x":362,"y":341,"move_time":1239.199999988079},{"src":"http://34.125.186.26/images/6_7.jpg","x":40,"y":341,"move_time":1048.300000011921},{"src":"http://34.125.186.26/images/6_8.jpg","x":524,"y":341,"move_time":1123.4000000357628}],"final_locations":[{"final":{"src":"http://34.125.186.26/images/6_8.jpg","x":524,"y":341,"move_time":1123.4000000357628}}],"stars_time":[15263.300000011921],"end_time":[21382.19999998808],"rt":6118.899999976158,"trial_type":"order","trial_index":11,"time_elapsed":20960,"internal_node_id":"0.0-11.0","subject":1688674018827,"condition":"conditionA"},{"init_locations":[{"src":"http://34.125.186.26/images/7_1.jpg","x":40,"y":91},{"src":"http://34.125.186.26/images/7_2.jpg","x":201,"y":91},{"src":"http://34.125.186.26/images/7_3.jpg","x":362,"y":91},{"src":"http://34.125.186.26/images/7_4.jpg","x":524,"y":91}],"moves":[],"final_locations":[{}],"stars_time":[21383.5],"end_time":[21717.80000001192],"rt":334.30000001192093,"trial_type":"order","trial_index":12,"time_elapsed":21296,"internal_node_id":"0.0-12.0","subject":1688674018827,"condition":"conditionA"},{"init_locations":[{"src":"http://34.125.186.26/images/7_5.jpg","x":40,"y":91},{"src":"http://34.125.186.26/images/7_6.jpg","x":201,"y":91},{"src":"http://34.125.186.26/images/7_7.jpg","x":362,"y":91},{"src":"http://34.125.186.26/images/7_8.jpg","x":524,"y":91}],"moves":[],"final_locations":[{}],"stars_time":[21718.600000023842],"end_time":[21966],"rt":247.39999997615814,"trial_type":"order","trial_index":13,"time_elapsed":21544,"internal_node_id":"0.0-13.0","subject":1688674018827,"condition":"conditionA"},{"init_locations":[{"src":"http://34.125.186.26/images/8_1.jpg","x":40,"y":91},{"src":"http://34.125.186.26/images/8_2.jpg","x":201,"y":91},{"src":"http://34.125.186.26/images/8_3.jpg","x":362,"y":91},{"src":"http://34.125.186.26/images/8_4.jpg","x":524,"y":91}],"moves":[],"final_locations":[{}],"stars_time":[21966.80000001192],"end_time":[22158.30000001192],"rt":191.5,"trial_type":"order","trial_index":14,"time_elapsed":21736,"internal_node_id":"0.0-14.0","subject":1688674018827,"condition":"conditionA"},{"init_locations":[{"src":"http://34.125.186.26/images/8_5.jpg","x":40,"y":91},{"src":"http://34.125.186.26/images/8_6.jpg","x":201,"y":91},{"src":"http://34.125.186.26/images/8_7.jpg","x":362,"y":91},{"src":"http://34.125.186.26/images/8_8.jpg","x":524,"y":91}],"moves":[],"final_locations":[{}],"stars_time":[22159.30000001192],"end_time":[22374.19999998808],"rt":214.89999997615814,"trial_type":"order","trial_index":15,"time_elapsed":21952,"internal_node_id":"0.0-15.0","subject":1688674018827,"condition":"conditionA"},{"init_locations":[{"src":"http://34.125.186.26/images/9_1.jpg","x":40,"y":91},{"src":"http://34.125.186.26/images/9_2.jpg","x":201,"y":91},{"src":"http://34.125.186.26/images/9_3.jpg","x":362,"y":91},{"src":"http://34.125.186.26/images/9_4.jpg","x":524,"y":91}],"moves":[],"final_locations":[{}],"stars_time":[22375.100000023842],"end_time":[22586.100000023842],"rt":211,"trial_type":"order","trial_index":16,"time_elapsed":22164,"internal_node_id":"0.0-16.0","subject":1688674018827,"condition":"conditionA"},{"init_locations":[{"src":"http://34.125.186.26/images/9_5.jpg","x":40,"y":91},{"src":"http://34.125.186.26/images/9_6.jpg","x":201,"y":91},{"src":"http://34.125.186.26/images/9_7.jpg","x":362,"y":91},{"src":"http://34.125.186.26/images/9_8.jpg","x":524,"y":91}],"moves":[],"final_locations":[{}],"stars_time":[22587.100000023842],"end_time":[22842.100000023842],"rt":255,"trial_type":"order","trial_index":17,"time_elapsed":22420,"internal_node_id":"0.0-17.0","subject":1688674018827,"condition":"conditionA"},{"rt":1407,"stimulus":"<p>How difficult was it to order the pictures?</p>","button_pressed":"3","trial_type":"html-button-response","trial_index":18,"time_elapsed":23829,"internal_node_id":"0.0-18.0","subject":1688674018827,"condition":"conditionA"}]