[{"view_history":"[{\"page_index\":0,\"viewing_time\":1414.6000000238419},{\"page_index\":1,\"viewing_time\":2975.300000011921},{\"page_index\":2,\"viewing_time\":472.0999999642372}]","rt":4862.900000035763,"trial_type":"instructions","trial_index":0,"time_elapsed":4870,"internal_node_id":"0.0-0.0","subject":1688774249886,"condition":"conditionC"},{"init_locations":[{"src":"http://34.125.186.26/images/test_3.jpg","x":40,"y":103},{"src":"http://34.125.186.26/images/test_4.jpg","x":201,"y":103},{"src":"http://34.125.186.26/images/test_1.jpg","x":362,"y":103},{"src":"http://34.125.186.26/images/test_2.jpg","x":524,"y":103}],"moves":[{"src":"http://34.125.186.26/images/test_4.jpg","x":201,"y":341,"move_time":1247.800000011921}],"final_locations":[{"final":{"src":"http://34.125.186.26/images/test_4.jpg","x":201,"y":341,"move_time":1247.800000011921}}],"stars_time":[5921.5],"end_time":[8441.099999964237],"rt":2519.599999964237,"trial_type":"order","trial_index":1,"time_elapsed":7393,"internal_node_id":"0.0-1.0","subject":1688774249886,"condition":"conditionC"},{"view_history":"[{\"page_index\":0,\"viewing_time\":24235.5}]","rt":24235.80000001192,"trial_type":"instructions","trial_index":2,"time_elapsed":31629,"internal_node_id":"0.0-2.0","subject":1688774249886,"condition":"conditionC"},{"init_locations":[{"src":"http://34.125.186.26/images/2_5.jpg","x":40,"y":103},{"src":"http://34.125.186.26/images/2_6.jpg","x":201,"y":103},{"src":"http://34.125.186.26/images/2_7.jpg","x":362,"y":103},{"src":"http://34.125.186.26/images/2_8.jpg","x":524,"y":103}],"moves":[{"src":"http://34.125.186.26/images/2_6.jpg","x":201,"y":341,"move_time":1252.5}],"final_locations":[{"final":{"src":"http://34.125.186.26/images/2_6.jpg","x":201,"y":341,"move_time":1252.5}}],"stars_time":[32678],"end_time":[34997.5],"rt":2319.5,"trial_type":"order","trial_index":3,"time_elapsed":33950,"internal_node_id":"0.0-3.0","subject":1688774249886,"condition":"conditionC"},{"rt":1170.199999988079,"stimulus":"<p>How difficult was it to order the pictures?</p>","button_pressed":"2","trial_type":"html-button-response","trial_index":4,"time_elapsed":35122,"internal_node_id":"0.0-4.0","subject":1688774249886,"condition":"conditionC"},{"rt":3382.199999988079,"responses":"{\"Q0\":\"uybyu\\n\"}","trial_type":"survey-text","trial_index":5,"time_elapsed":38516,"internal_node_id":"0.0-5.0","subject":1688774249886,"condition":"conditionC"},{"init_locations":[{"src":"http://34.125.186.26/images/7_1.jpg","x":40,"y":103},{"src":"http://34.125.186.26/images/7_2.jpg","x":201,"y":103},{"src":"http://34.125.186.26/images/7_4.jpg","x":362,"y":103},{"src":"http://34.125.186.26/images/7_3.jpg","x":524,"y":103}],"moves":[{"src":"http://34.125.186.26/images/7_2.jpg","x":201,"y":341,"move_time":916.3000000119209}],"final_locations":[{"final":{"src":"http://34.125.186.26/images/7_2.jpg","x":201,"y":341,"move_time":916.3000000119209}}],"stars_time":[39564.69999998808],"end_time":[41369.30000001192],"rt":1804.6000000238419,"trial_type":"order","trial_index":6,"time_elapsed":40321,"internal_node_id":"0.0-6.0","subject":1688774249886,"condition":"conditionC"}]