[{"view_history":"[{\"page_index\":0,\"viewing_time\":1405.199999988079},{\"page_index\":1,\"viewing_time\":423.69999998807907},{\"page_index\":2,\"viewing_time\":176.10000002384186}]","rt":2005.199999988079,"trial_type":"instructions","trial_index":0,"time_elapsed":2006,"internal_node_id":"0.0-0.0","subject":"8.7.2023, 0:45:42","condition":"conditionB"},{"rt":1137.8999999761581,"responses":"{\"Q0\":\"\"}","trial_type":"survey-text","trial_index":1,"time_elapsed":3146,"internal_node_id":"0.0-1.0","subject":"8.7.2023, 0:45:42","condition":"conditionB"},{"view_history":"[{\"page_index\":0,\"viewing_time\":807},{\"page_index\":1,\"viewing_time\":463.7999999523163},{\"page_index\":2,\"viewing_time\":4335.900000035763}]","rt":5607,"trial_type":"instructions","trial_index":2,"time_elapsed":8753,"internal_node_id":"0.0-2.0","subject":"8.7.2023, 0:45:42","condition":"conditionB"},{"init_locations":[{"src":"http://34.125.186.26/images/test_3.jpg","x":309,"y":76},{"src":"http://34.125.186.26/images/test_4.jpg","x":470,"y":76},{"src":"http://34.125.186.26/images/test_1.jpg","x":631,"y":76},{"src":"http://34.125.186.26/images/test_2.jpg","x":793,"y":76}],"moves":[],"final_locations":[{}],"stars_time":[8973.200000047684],"end_time":[11456.5],"rt":2483.2999999523163,"trial_type":"order","trial_index":3,"time_elapsed":11238,"internal_node_id":"0.0-3.0","subject":"8.7.2023, 0:45:42","condition":"conditionB"},{"view_history":"[{\"page_index\":0,\"viewing_time\":1143.1000000238419}]","rt":1143.300000011921,"trial_type":"instructions","trial_index":4,"time_elapsed":12381,"internal_node_id":"0.0-4.0","subject":"8.7.2023, 0:45:42","condition":"conditionB"},{"init_locations":[{"src":"http://34.125.186.26/images/2_5.jpg","x":309,"y":76},{"src":"http://34.125.186.26/images/2_6.jpg","x":470,"y":76},{"src":"http://34.125.186.26/images/2_7.jpg","x":631,"y":76},{"src":"http://34.125.186.26/images/2_8.jpg","x":793,"y":76}],"moves":[],"final_locations":[{}],"stars_time":[12601.100000023842],"end_time":[15492.600000023842],"rt":2891.5,"trial_type":"order","trial_index":5,"time_elapsed":15273,"internal_node_id":"0.0-5.0","subject":"8.7.2023, 0:45:42","condition":"conditionB"},{"rt":1027.2000000476837,"stimulus":"<p>How difficult was it to order the pictures?</p>","button_pressed":"3","trial_type":"html-button-response","trial_index":6,"time_elapsed":16302,"internal_node_id":"0.0-6.0","subject":"8.7.2023, 0:45:42","condition":"conditionB"},{"rt":1108.4000000357628,"responses":"{\"Q0\":\"\"}","trial_type":"survey-text","trial_index":7,"time_elapsed":17414,"internal_node_id":"0.0-7.0","subject":"8.7.2023, 0:45:42","condition":"conditionB"},{"init_locations":[{"src":"http://34.125.186.26/images/7_1.jpg","x":309,"y":76},{"src":"http://34.125.186.26/images/7_2.jpg","x":470,"y":76},{"src":"http://34.125.186.26/images/7_4.jpg","x":631,"y":76},{"src":"http://34.125.186.26/images/7_3.jpg","x":793,"y":76}],"moves":[],"final_locations":[{}],"stars_time":[17633.5],"end_time":[35960.40000003576],"rt":18326.900000035763,"trial_type":"order","trial_index":8,"time_elapsed":35741,"internal_node_id":"0.0-8.0","subject":"8.7.2023, 0:45:42","condition":"conditionB"}]