PID,trial,pair_id,stim_type,practice,run,block,left_category,right_category,left_stimulus,right_stimulus,left_path,right_path,left_rating,right_rating,iti,scramble_screen_time,scramble_instructed_side,scramble_acc,no_response,rt,left_chosen,chosen_stimulus,unchosen_stimulus,chosen_category,unchosen_category,chosen_path,unchosen_path
77131,1,prac1,original,1,0,0,NaN,NaN,NA,NA,Stimuli/Practice_stims/Deliberation/anthony-delanoix-Q0-fOL2nqZc-unsplash.jpg,Stimuli/Practice_stims/Deliberation/becca-tapert-sY5RjMB1KkE-unsplash.jpg,NA,NA,1500,NaN,NaN,NaN,0,NaN,NaN,NaN,NaN,NaN,NaN,NaN,NaN
77131,2,prac2,scramble,1,0,0,NaN,NaN,NA,NA,Stimuli/Practice_stims/Deliberation/scramble/scrambled_clay-banks-1KPfcPdbWFM-unsplash.jpg,Stimuli/Practice_stims/Deliberation/scramble/scrambled_melissa-keizer-sV4Pd8wq5_o-unsplash.jpg,NA,NA,2500,2559,NaN,NaN,0,NaN,NaN,NaN,NaN,NaN,NaN,NaN,NaN
77131,3,prac3,scramble,1,0,0,NaN,NaN,NA,NA,Stimuli/Practice_stims/Deliberation/scramble/scrambled_anthony-delanoix-Q0-fOL2nqZc-unsplash.jpg,Stimuli/Practice_stims/Deliberation/scramble/scrambled_becca-tapert-sY5RjMB1KkE-unsplash.jpg,NA,NA,3000,1450,NaN,NaN,0,NaN,NaN,NaN,NaN,NaN,NaN,NaN,NaN
77131,4,prac4,original,1,0,0,NaN,NaN,NA,NA,Stimuli/Practice_stims/Deliberation/clay-banks-1KPfcPdbWFM-unsplash.jpg,Stimuli/Practice_stims/Deliberation/melissa-keizer-sV4Pd8wq5_o-unsplash.jpg,NA,NA,2000,NaN,NaN,NaN,0,NaN,NaN,NaN,NaN,NaN,NaN,NaN,NaN
77131,5,B,scramble,0,1,1,outdoor_scenes,faces,20,32,Stimuli/Experimental_stims/scramble/outdoor_scenes/scrambled_samsommer-vddccTqwal8-unsplash.jpg,Stimuli/Experimental_stims/scramble/faces/scrambled_justin-chen-J7Cf1Gch49E-unsplash.jpg,NaN,NaN,1500,1152,NaN,NaN,0,NaN,NaN,NaN,NaN,NaN,NaN,NaN,NaN
77131,6,D,original,0,1,1,objects,faces,53,28,Stimuli/Experimental_stims/objects/insung-yoon-w2JtIQQXoRU-unsplash.jpg,Stimuli/Experimental_stims/faces/erik-lucatero-d2MSDujJl2g-unsplash.jpg,50,50,1000,NaN,NaN,NaN,0,NaN,NaN,NaN,NaN,NaN,NaN,NaN,NaN
77131,7,H,original,0,1,1,faces,outdoor_scenes,25,16,Stimuli/Experimental_stims/faces/aiony-haust-jmATI5Q_YgY-unsplash.jpg,Stimuli/Experimental_stims/outdoor_scenes/jarrett-kow-1ZOyYPOBn7I-unsplash.jpg,50,50,1000,NaN,NaN,NaN,0,NaN,NaN,NaN,NaN,NaN,NaN,NaN,NaN
77131,8,A,scramble,0,1,1,outdoor_scenes,objects,13,54,Stimuli/Experimental_stims/scramble/outdoor_scenes/scrambled_ashim-d-silva-S2Q5mdOrrVc-unsplash.jpg,Stimuli/Experimental_stims/scramble/objects/scrambled_jess-bailey-nOeVi8DsN8U-unsplash.jpg,NaN,NaN,1500,1883,NaN,NaN,0,NaN,NaN,NaN,NaN,NaN,NaN,NaN,NaN
77131,9,J,scramble,0,1,1,faces,objects,26,59,Stimuli/Experimental_stims/scramble/faces/scrambled_art-hauntington-jzY0KRJopEI-unsplash.jpg,Stimuli/Experimental_stims/scramble/objects/scrambled_ronaldo-arthur-vidal-Cdz_lvnl37k-unsplash.jpg,NaN,NaN,3000,1701,NaN,NaN,0,NaN,NaN,NaN,NaN,NaN,NaN,NaN,NaN
77131,10,K,scramble,0,1,1,body_parts,objects,38,50,Stimuli/Experimental_stims/scramble/body_parts/scrambled_engin-akyurt-x_3gyC42btc-unsplash.jpg,Stimuli/Experimental_stims/scramble/objects/scrambled_andrew-petrov-TVJqDat4MAw-unsplash.jpg,NaN,NaN,3000,1339,NaN,NaN,0,NaN,NaN,NaN,NaN,NaN,NaN,NaN,NaN
77131,11,L,scramble,0,1,1,body_parts,faces,47,24,Stimuli/Experimental_stims/scramble/body_parts/scrambled_tucker-good-36skLT5jZcc-unsplash.jpg,Stimuli/Experimental_stims/scramble/faces/scrambled_abstral-official-cyOKLSgkgCE-unsplash.jpg,NaN,NaN,1000,1820,NaN,NaN,0,NaN,NaN,NaN,NaN,NaN,NaN,NaN,NaN
77131,12,C,original,0,1,1,outdoor_scenes,body_parts,22,43,Stimuli/Experimental_stims/outdoor_scenes/stephen-leonardi-gyIRjKPXupE-unsplash.jpg,Stimuli/Experimental_stims/body_parts/megan-menegay-UojxG_BJxnI-unsplash.jpg,50,50,1500,NaN,NaN,NaN,0,NaN,NaN,NaN,NaN,NaN,NaN,NaN,NaN
77131,13,B,original,0,1,1,outdoor_scenes,faces,20,32,Stimuli/Experimental_stims/outdoor_scenes/samsommer-vddccTqwal8-unsplash.jpg,Stimuli/Experimental_stims/faces/justin-chen-J7Cf1Gch49E-unsplash.jpg,50,50,3000,NaN,NaN,NaN,0,NaN,NaN,NaN,NaN,NaN,NaN,NaN,NaN
77131,14,L,original,0,1,1,body_parts,faces,47,24,Stimuli/Experimental_stims/body_parts/tucker-good-36skLT5jZcc-unsplash.jpg,Stimuli/Experimental_stims/faces/abstral-official-cyOKLSgkgCE-unsplash.jpg,50,50,1500,NaN,NaN,NaN,0,NaN,NaN,NaN,NaN,NaN,NaN,NaN,NaN
77131,15,G,scramble,0,1,1,objects,outdoor_scenes,56,18,Stimuli/Experimental_stims/scramble/objects/scrambled_jonathan-greenaway-Y4hGgeiFn3s-unsplash.jpg,Stimuli/Experimental_stims/scramble/outdoor_scenes/scrambled_meng-ji-8BH_M-53CyA-unsplash.jpg,NaN,NaN,1000,1933,NaN,NaN,0,NaN,NaN,NaN,NaN,NaN,NaN,NaN,NaN
77131,16,A,original,0,1,1,outdoor_scenes,objects,13,54,Stimuli/Experimental_stims/outdoor_scenes/ashim-d-silva-S2Q5mdOrrVc-unsplash.jpg,Stimuli/Experimental_stims/objects/jess-bailey-nOeVi8DsN8U-unsplash.jpg,50,50,1500,NaN,NaN,NaN,0,NaN,NaN,NaN,NaN,NaN,NaN,NaN,NaN
77131,17,F,original,0,1,1,faces,body_parts,30,40,Stimuli/Experimental_stims/faces/good-faces-xmSWVeGEnJw-unsplash.jpg,Stimuli/Experimental_stims/body_parts/klara-kulikova-TcUfF24fUMY-unsplash.jpg,50,50,1000,NaN,NaN,NaN,0,NaN,NaN,NaN,NaN,NaN,NaN,NaN,NaN
77131,18,E,scramble,0,1,1,objects,body_parts,52,45,Stimuli/Experimental_stims/scramble/objects/scrambled_fabian-blank-pElSkGRA2NU-unsplash.jpg,Stimuli/Experimental_stims/scramble/body_parts/scrambled_sincerely-media-7TBFwUQA6Xk-unsplash.jpg,NaN,NaN,1000,313,NaN,NaN,0,NaN,NaN,NaN,NaN,NaN,NaN,NaN,NaN
77131,19,F,scramble,0,1,1,faces,body_parts,30,40,Stimuli/Experimental_stims/scramble/faces/scrambled_good-faces-xmSWVeGEnJw-unsplash.jpg,Stimuli/Experimental_stims/scramble/body_parts/scrambled_klara-kulikova-TcUfF24fUMY-unsplash.jpg,NaN,NaN,1000,1345,NaN,NaN,0,NaN,NaN,NaN,NaN,NaN,NaN,NaN,NaN
77131,20,C,scramble,0,1,1,outdoor_scenes,body_parts,22,43,Stimuli/Experimental_stims/scramble/outdoor_scenes/scrambled_stephen-leonardi-gyIRjKPXupE-unsplash.jpg,Stimuli/Experimental_stims/scramble/body_parts/scrambled_megan-menegay-UojxG_BJxnI-unsplash.jpg,NaN,NaN,2000,1940,NaN,NaN,0,NaN,NaN,NaN,NaN,NaN,NaN,NaN,NaN
77131,21,D,scramble,0,1,1,objects,faces,53,28,Stimuli/Experimental_stims/scramble/objects/scrambled_insung-yoon-w2JtIQQXoRU-unsplash.jpg,Stimuli/Experimental_stims/scramble/faces/scrambled_erik-lucatero-d2MSDujJl2g-unsplash.jpg,NaN,NaN,3500,1223,NaN,NaN,0,NaN,NaN,NaN,NaN,NaN,NaN,NaN,NaN
77131,22,J,original,0,1,1,faces,objects,26,59,Stimuli/Experimental_stims/faces/art-hauntington-jzY0KRJopEI-unsplash.jpg,Stimuli/Experimental_stims/objects/ronaldo-arthur-vidal-Cdz_lvnl37k-unsplash.jpg,50,50,2000,NaN,NaN,NaN,0,NaN,NaN,NaN,NaN,NaN,NaN,NaN,NaN
77131,23,K,original,0,1,1,body_parts,objects,38,50,Stimuli/Experimental_stims/body_parts/engin-akyurt-x_3gyC42btc-unsplash.jpg,Stimuli/Experimental_stims/objects/andrew-petrov-TVJqDat4MAw-unsplash.jpg,50,50,3000,NaN,NaN,NaN,0,NaN,NaN,NaN,NaN,NaN,NaN,NaN,NaN
77131,24,H,scramble,0,1,1,faces,outdoor_scenes,25,16,Stimuli/Experimental_stims/scramble/faces/scrambled_aiony-haust-jmATI5Q_YgY-unsplash.jpg,Stimuli/Experimental_stims/scramble/outdoor_scenes/scrambled_jarrett-kow-1ZOyYPOBn7I-unsplash.jpg,NaN,NaN,1500,1508,NaN,NaN,0,NaN,NaN,NaN,NaN,NaN,NaN,NaN,NaN
77131,25,I,original,0,1,1,body_parts,outdoor_scenes,41,15,Stimuli/Experimental_stims/body_parts/lucaxx-freire-CacZwMexYdk-unsplash.jpg,Stimuli/Experimental_stims/outdoor_scenes/henry-be-NLF6hTe4PAg-unsplash.jpg,50,50,2000,NaN,NaN,NaN,0,NaN,NaN,NaN,NaN,NaN,NaN,NaN,NaN
77131,26,I,scramble,0,1,1,body_parts,outdoor_scenes,41,15,Stimuli/Experimental_stims/scramble/body_parts/scrambled_lucaxx-freire-CacZwMexYdk-unsplash.jpg,Stimuli/Experimental_stims/scramble/outdoor_scenes/scrambled_henry-be-NLF6hTe4PAg-unsplash.jpg,NaN,NaN,2000,1676,NaN,NaN,0,NaN,NaN,NaN,NaN,NaN,NaN,NaN,NaN
77131,27,E,original,0,1,1,objects,body_parts,52,45,Stimuli/Experimental_stims/objects/fabian-blank-pElSkGRA2NU-unsplash.jpg,Stimuli/Experimental_stims/body_parts/sincerely-media-7TBFwUQA6Xk-unsplash.jpg,50,50,1000,NaN,NaN,NaN,0,NaN,NaN,NaN,NaN,NaN,NaN,NaN,NaN
77131,28,G,original,0,1,1,objects,outdoor_scenes,56,18,Stimuli/Experimental_stims/objects/jonathan-greenaway-Y4hGgeiFn3s-unsplash.jpg,Stimuli/Experimental_stims/outdoor_scenes/meng-ji-8BH_M-53CyA-unsplash.jpg,50,50,3500,NaN,NaN,NaN,0,NaN,NaN,NaN,NaN,NaN,NaN,NaN,NaN
77131,29,C,original,0,1,2,outdoor_scenes,body_parts,22,43,Stimuli/Experimental_stims/outdoor_scenes/stephen-leonardi-gyIRjKPXupE-unsplash.jpg,Stimuli/Experimental_stims/body_parts/megan-menegay-UojxG_BJxnI-unsplash.jpg,50,50,1500,NaN,NaN,NaN,0,NaN,NaN,NaN,NaN,NaN,NaN,NaN,NaN
77131,30,K,original,0,1,2,body_parts,objects,38,50,Stimuli/Experimental_stims/body_parts/engin-akyurt-x_3gyC42btc-unsplash.jpg,Stimuli/Experimental_stims/objects/andrew-petrov-TVJqDat4MAw-unsplash.jpg,50,50,3000,NaN,NaN,NaN,0,NaN,NaN,NaN,NaN,NaN,NaN,NaN,NaN
77131,31,A,scramble,0,1,2,outdoor_scenes,objects,13,54,Stimuli/Experimental_stims/scramble/outdoor_scenes/scrambled_ashim-d-silva-S2Q5mdOrrVc-unsplash.jpg,Stimuli/Experimental_stims/scramble/objects/scrambled_jess-bailey-nOeVi8DsN8U-unsplash.jpg,NaN,NaN,1000,212,NaN,NaN,0,NaN,NaN,NaN,NaN,NaN,NaN,NaN,NaN
77131,32,I,original,0,1,2,body_parts,outdoor_scenes,41,15,Stimuli/Experimental_stims/body_parts/lucaxx-freire-CacZwMexYdk-unsplash.jpg,Stimuli/Experimental_stims/outdoor_scenes/henry-be-NLF6hTe4PAg-unsplash.jpg,50,50,1000,NaN,NaN,NaN,0,NaN,NaN,NaN,NaN,NaN,NaN,NaN,NaN
77131,33,F,original,0,1,2,faces,body_parts,30,40,Stimuli/Experimental_stims/faces/good-faces-xmSWVeGEnJw-unsplash.jpg,Stimuli/Experimental_stims/body_parts/klara-kulikova-TcUfF24fUMY-unsplash.jpg,50,50,3500,NaN,NaN,NaN,0,NaN,NaN,NaN,NaN,NaN,NaN,NaN,NaN
77131,34,G,scramble,0,1,2,objects,outdoor_scenes,56,18,Stimuli/Experimental_stims/scramble/objects/scrambled_jonathan-greenaway-Y4hGgeiFn3s-unsplash.jpg,Stimuli/Experimental_stims/scramble/outdoor_scenes/scrambled_meng-ji-8BH_M-53CyA-unsplash.jpg,NaN,NaN,2000,1792,NaN,NaN,0,NaN,NaN,NaN,NaN,NaN,NaN,NaN,NaN
77131,35,J,original,0,1,2,faces,objects,26,59,Stimuli/Experimental_stims/faces/art-hauntington-jzY0KRJopEI-unsplash.jpg,Stimuli/Experimental_stims/objects/ronaldo-arthur-vidal-Cdz_lvnl37k-unsplash.jpg,50,50,1000,NaN,NaN,NaN,0,NaN,NaN,NaN,NaN,NaN,NaN,NaN,NaN
77131,36,L,scramble,0,1,2,body_parts,faces,47,24,Stimuli/Experimental_stims/scramble/body_parts/scrambled_tucker-good-36skLT5jZcc-unsplash.jpg,Stimuli/Experimental_stims/scramble/faces/scrambled_abstral-official-cyOKLSgkgCE-unsplash.jpg,NaN,NaN,1000,1510,NaN,NaN,0,NaN,NaN,NaN,NaN,NaN,NaN,NaN,NaN
77131,37,K,scramble,0,1,2,body_parts,objects,38,50,Stimuli/Experimental_stims/scramble/body_parts/scrambled_engin-akyurt-x_3gyC42btc-unsplash.jpg,Stimuli/Experimental_stims/scramble/objects/scrambled_andrew-petrov-TVJqDat4MAw-unsplash.jpg,NaN,NaN,3000,1982,NaN,NaN,0,NaN,NaN,NaN,NaN,NaN,NaN,NaN,NaN
77131,38,D,scramble,0,1,2,objects,faces,53,28,Stimuli/Experimental_stims/scramble/objects/scrambled_insung-yoon-w2JtIQQXoRU-unsplash.jpg,Stimuli/Experimental_stims/scramble/faces/scrambled_erik-lucatero-d2MSDujJl2g-unsplash.jpg,NaN,NaN,1500,1575,NaN,NaN,0,NaN,NaN,NaN,NaN,NaN,NaN,NaN,NaN
77131,39,A,original,0,1,2,outdoor_scenes,objects,13,54,Stimuli/Experimental_stims/outdoor_scenes/ashim-d-silva-S2Q5mdOrrVc-unsplash.jpg,Stimuli/Experimental_stims/objects/jess-bailey-nOeVi8DsN8U-unsplash.jpg,50,50,1000,NaN,NaN,NaN,0,NaN,NaN,NaN,NaN,NaN,NaN,NaN,NaN
77131,40,E,original,0,1,2,objects,body_parts,52,45,Stimuli/Experimental_stims/objects/fabian-blank-pElSkGRA2NU-unsplash.jpg,Stimuli/Experimental_stims/body_parts/sincerely-media-7TBFwUQA6Xk-unsplash.jpg,50,50,3000,NaN,NaN,NaN,0,NaN,NaN,NaN,NaN,NaN,NaN,NaN,NaN
77131,41,L,original,0,1,2,body_parts,faces,47,24,Stimuli/Experimental_stims/body_parts/tucker-good-36skLT5jZcc-unsplash.jpg,Stimuli/Experimental_stims/faces/abstral-official-cyOKLSgkgCE-unsplash.jpg,50,50,1500,NaN,NaN,NaN,0,NaN,NaN,NaN,NaN,NaN,NaN,NaN,NaN
77131,42,I,scramble,0,1,2,body_parts,outdoor_scenes,41,15,Stimuli/Experimental_stims/scramble/body_parts/scrambled_lucaxx-freire-CacZwMexYdk-unsplash.jpg,Stimuli/Experimental_stims/scramble/outdoor_scenes/scrambled_henry-be-NLF6hTe4PAg-unsplash.jpg,NaN,NaN,1500,1253,NaN,NaN,0,NaN,NaN,NaN,NaN,NaN,NaN,NaN,NaN
77131,43,F,scramble,0,1,2,faces,body_parts,30,40,Stimuli/Experimental_stims/scramble/faces/scrambled_good-faces-xmSWVeGEnJw-unsplash.jpg,Stimuli/Experimental_stims/scramble/body_parts/scrambled_klara-kulikova-TcUfF24fUMY-unsplash.jpg,NaN,NaN,2000,1901,NaN,NaN,0,NaN,NaN,NaN,NaN,NaN,NaN,NaN,NaN
77131,44,C,scramble,0,1,2,outdoor_scenes,body_parts,22,43,Stimuli/Experimental_stims/scramble/outdoor_scenes/scrambled_stephen-leonardi-gyIRjKPXupE-unsplash.jpg,Stimuli/Experimental_stims/scramble/body_parts/scrambled_megan-menegay-UojxG_BJxnI-unsplash.jpg,NaN,NaN,1000,1564,NaN,NaN,0,NaN,NaN,NaN,NaN,NaN,NaN,NaN,NaN
77131,45,B,scramble,0,1,2,outdoor_scenes,faces,20,32,Stimuli/Experimental_stims/scramble/outdoor_scenes/scrambled_samsommer-vddccTqwal8-unsplash.jpg,Stimuli/Experimental_stims/scramble/faces/scrambled_justin-chen-J7Cf1Gch49E-unsplash.jpg,NaN,NaN,3000,1948,NaN,NaN,0,NaN,NaN,NaN,NaN,NaN,NaN,NaN,NaN
77131,46,H,scramble,0,1,2,faces,outdoor_scenes,25,16,Stimuli/Experimental_stims/scramble/faces/scrambled_aiony-haust-jmATI5Q_YgY-unsplash.jpg,Stimuli/Experimental_stims/scramble/outdoor_scenes/scrambled_jarrett-kow-1ZOyYPOBn7I-unsplash.jpg,NaN,NaN,1500,1903,NaN,NaN,0,NaN,NaN,NaN,NaN,NaN,NaN,NaN,NaN
77131,47,B,original,0,1,2,outdoor_scenes,faces,20,32,Stimuli/Experimental_stims/outdoor_scenes/samsommer-vddccTqwal8-unsplash.jpg,Stimuli/Experimental_stims/faces/justin-chen-J7Cf1Gch49E-unsplash.jpg,50,50,2000,NaN,NaN,NaN,0,NaN,NaN,NaN,NaN,NaN,NaN,NaN,NaN
77131,48,G,original,0,1,2,objects,outdoor_scenes,56,18,Stimuli/Experimental_stims/objects/jonathan-greenaway-Y4hGgeiFn3s-unsplash.jpg,Stimuli/Experimental_stims/outdoor_scenes/meng-ji-8BH_M-53CyA-unsplash.jpg,50,50,1000,NaN,NaN,NaN,0,NaN,NaN,NaN,NaN,NaN,NaN,NaN,NaN
77131,49,D,original,0,1,2,objects,faces,53,28,Stimuli/Experimental_stims/objects/insung-yoon-w2JtIQQXoRU-unsplash.jpg,Stimuli/Experimental_stims/faces/erik-lucatero-d2MSDujJl2g-unsplash.jpg,50,50,2000,NaN,NaN,NaN,0,NaN,NaN,NaN,NaN,NaN,NaN,NaN,NaN
77131,50,J,scramble,0,1,2,faces,objects,26,59,Stimuli/Experimental_stims/scramble/faces/scrambled_art-hauntington-jzY0KRJopEI-unsplash.jpg,Stimuli/Experimental_stims/scramble/objects/scrambled_ronaldo-arthur-vidal-Cdz_lvnl37k-unsplash.jpg,NaN,NaN,1000,1515,NaN,NaN,0,NaN,NaN,NaN,NaN,NaN,NaN,NaN,NaN
77131,51,H,original,0,1,2,faces,outdoor_scenes,25,16,Stimuli/Experimental_stims/faces/aiony-haust-jmATI5Q_YgY-unsplash.jpg,Stimuli/Experimental_stims/outdoor_scenes/jarrett-kow-1ZOyYPOBn7I-unsplash.jpg,50,50,1500,NaN,NaN,NaN,0,NaN,NaN,NaN,NaN,NaN,NaN,NaN,NaN
77131,52,E,scramble,0,1,2,objects,body_parts,52,45,Stimuli/Experimental_stims/scramble/objects/scrambled_fabian-blank-pElSkGRA2NU-unsplash.jpg,Stimuli/Experimental_stims/scramble/body_parts/scrambled_sincerely-media-7TBFwUQA6Xk-unsplash.jpg,NaN,NaN,3500,1753,NaN,NaN,0,NaN,NaN,NaN,NaN,NaN,NaN,NaN,NaN
77131,53,G,original,0,2,3,objects,outdoor_scenes,56,18,Stimuli/Experimental_stims/objects/jonathan-greenaway-Y4hGgeiFn3s-unsplash.jpg,Stimuli/Experimental_stims/outdoor_scenes/meng-ji-8BH_M-53CyA-unsplash.jpg,50,50,1500,NaN,NaN,NaN,0,NaN,NaN,NaN,NaN,NaN,NaN,NaN,NaN
77131,54,B,scramble,0,2,3,outdoor_scenes,faces,20,32,Stimuli/Experimental_stims/scramble/outdoor_scenes/scrambled_samsommer-vddccTqwal8-unsplash.jpg,Stimuli/Experimental_stims/scramble/faces/scrambled_justin-chen-J7Cf1Gch49E-unsplash.jpg,NaN,NaN,1500,966,NaN,NaN,0,NaN,NaN,NaN,NaN,NaN,NaN,NaN,NaN
77131,55,C,original,0,2,3,outdoor_scenes,body_parts,22,43,Stimuli/Experimental_stims/outdoor_scenes/stephen-leonardi-gyIRjKPXupE-unsplash.jpg,Stimuli/Experimental_stims/body_parts/megan-menegay-UojxG_BJxnI-unsplash.jpg,50,50,1000,NaN,NaN,NaN,0,NaN,NaN,NaN,NaN,NaN,NaN,NaN,NaN
77131,56,J,scramble,0,2,3,faces,objects,26,59,Stimuli/Experimental_stims/scramble/faces/scrambled_art-hauntington-jzY0KRJopEI-unsplash.jpg,Stimuli/Experimental_stims/scramble/objects/scrambled_ronaldo-arthur-vidal-Cdz_lvnl37k-unsplash.jpg,NaN,NaN,2000,1385,NaN,NaN,0,NaN,NaN,NaN,NaN,NaN,NaN,NaN,NaN
77131,57,D,scramble,0,2,3,objects,faces,53,28,Stimuli/Experimental_stims/scramble/objects/scrambled_insung-yoon-w2JtIQQXoRU-unsplash.jpg,Stimuli/Experimental_stims/scramble/faces/scrambled_erik-lucatero-d2MSDujJl2g-unsplash.jpg,NaN,NaN,2000,1576,NaN,NaN,0,NaN,NaN,NaN,NaN,NaN,NaN,NaN,NaN
77131,58,H,original,0,2,3,faces,outdoor_scenes,25,16,Stimuli/Experimental_stims/faces/aiony-haust-jmATI5Q_YgY-unsplash.jpg,Stimuli/Experimental_stims/outdoor_scenes/jarrett-kow-1ZOyYPOBn7I-unsplash.jpg,50,50,3000,NaN,NaN,NaN,0,NaN,NaN,NaN,NaN,NaN,NaN,NaN,NaN
77131,59,D,original,0,2,3,objects,faces,53,28,Stimuli/Experimental_stims/objects/insung-yoon-w2JtIQQXoRU-unsplash.jpg,Stimuli/Experimental_stims/faces/erik-lucatero-d2MSDujJl2g-unsplash.jpg,50,50,1000,NaN,NaN,NaN,0,NaN,NaN,NaN,NaN,NaN,NaN,NaN,NaN
77131,60,J,original,0,2,3,faces,objects,26,59,Stimuli/Experimental_stims/faces/art-hauntington-jzY0KRJopEI-unsplash.jpg,Stimuli/Experimental_stims/objects/ronaldo-arthur-vidal-Cdz_lvnl37k-unsplash.jpg,50,50,1000,NaN,NaN,NaN,0,NaN,NaN,NaN,NaN,NaN,NaN,NaN,NaN
77131,61,B,original,0,2,3,outdoor_scenes,faces,20,32,Stimuli/Experimental_stims/outdoor_scenes/samsommer-vddccTqwal8-unsplash.jpg,Stimuli/Experimental_stims/faces/justin-chen-J7Cf1Gch49E-unsplash.jpg,50,50,3500,NaN,NaN,NaN,0,NaN,NaN,NaN,NaN,NaN,NaN,NaN,NaN
77131,62,I,scramble,0,2,3,body_parts,outdoor_scenes,41,15,Stimuli/Experimental_stims/scramble/body_parts/scrambled_lucaxx-freire-CacZwMexYdk-unsplash.jpg,Stimuli/Experimental_stims/scramble/outdoor_scenes/scrambled_henry-be-NLF6hTe4PAg-unsplash.jpg,NaN,NaN,1500,1399,NaN,NaN,0,NaN,NaN,NaN,NaN,NaN,NaN,NaN,NaN
77131,63,L,original,0,2,3,body_parts,faces,47,24,Stimuli/Experimental_stims/body_parts/tucker-good-36skLT5jZcc-unsplash.jpg,Stimuli/Experimental_stims/faces/abstral-official-cyOKLSgkgCE-unsplash.jpg,50,50,2000,NaN,NaN,NaN,0,NaN,NaN,NaN,NaN,NaN,NaN,NaN,NaN
77131,64,A,scramble,0,2,3,outdoor_scenes,objects,13,54,Stimuli/Experimental_stims/scramble/outdoor_scenes/scrambled_ashim-d-silva-S2Q5mdOrrVc-unsplash.jpg,Stimuli/Experimental_stims/scramble/objects/scrambled_jess-bailey-nOeVi8DsN8U-unsplash.jpg,NaN,NaN,3500,1647,NaN,NaN,0,NaN,NaN,NaN,NaN,NaN,NaN,NaN,NaN
77131,65,E,original,0,2,3,objects,body_parts,52,45,Stimuli/Experimental_stims/objects/fabian-blank-pElSkGRA2NU-unsplash.jpg,Stimuli/Experimental_stims/body_parts/sincerely-media-7TBFwUQA6Xk-unsplash.jpg,50,50,1500,NaN,NaN,NaN,0,NaN,NaN,NaN,NaN,NaN,NaN,NaN,NaN
77131,66,K,scramble,0,2,3,body_parts,objects,38,50,Stimuli/Experimental_stims/scramble/body_parts/scrambled_engin-akyurt-x_3gyC42btc-unsplash.jpg,Stimuli/Experimental_stims/scramble/objects/scrambled_andrew-petrov-TVJqDat4MAw-unsplash.jpg,NaN,NaN,3000,123,NaN,NaN,0,NaN,NaN,NaN,NaN,NaN,NaN,NaN,NaN
77131,67,F,original,0,2,3,faces,body_parts,30,40,Stimuli/Experimental_stims/faces/good-faces-xmSWVeGEnJw-unsplash.jpg,Stimuli/Experimental_stims/body_parts/klara-kulikova-TcUfF24fUMY-unsplash.jpg,50,50,1000,NaN,NaN,NaN,0,NaN,NaN,NaN,NaN,NaN,NaN,NaN,NaN
77131,68,C,scramble,0,2,3,outdoor_scenes,body_parts,22,43,Stimuli/Experimental_stims/scramble/outdoor_scenes/scrambled_stephen-leonardi-gyIRjKPXupE-unsplash.jpg,Stimuli/Experimental_stims/scramble/body_parts/scrambled_megan-menegay-UojxG_BJxnI-unsplash.jpg,NaN,NaN,1000,697,NaN,NaN,0,NaN,NaN,NaN,NaN,NaN,NaN,NaN,NaN
77131,69,I,original,0,2,3,body_parts,outdoor_scenes,41,15,Stimuli/Experimental_stims/body_parts/lucaxx-freire-CacZwMexYdk-unsplash.jpg,Stimuli/Experimental_stims/outdoor_scenes/henry-be-NLF6hTe4PAg-unsplash.jpg,50,50,1500,NaN,NaN,NaN,0,NaN,NaN,NaN,NaN,NaN,NaN,NaN,NaN
77131,70,K,original,0,2,3,body_parts,objects,38,50,Stimuli/Experimental_stims/body_parts/engin-akyurt-x_3gyC42btc-unsplash.jpg,Stimuli/Experimental_stims/objects/andrew-petrov-TVJqDat4MAw-unsplash.jpg,50,50,3000,NaN,NaN,NaN,0,NaN,NaN,NaN,NaN,NaN,NaN,NaN,NaN
77131,71,A,original,0,2,3,outdoor_scenes,objects,13,54,Stimuli/Experimental_stims/outdoor_scenes/ashim-d-silva-S2Q5mdOrrVc-unsplash.jpg,Stimuli/Experimental_stims/objects/jess-bailey-nOeVi8DsN8U-unsplash.jpg,50,50,2000,NaN,NaN,NaN,0,NaN,NaN,NaN,NaN,NaN,NaN,NaN,NaN
77131,72,L,scramble,0,2,3,body_parts,faces,47,24,Stimuli/Experimental_stims/scramble/body_parts/scrambled_tucker-good-36skLT5jZcc-unsplash.jpg,Stimuli/Experimental_stims/scramble/faces/scrambled_abstral-official-cyOKLSgkgCE-unsplash.jpg,NaN,NaN,1500,980,NaN,NaN,0,NaN,NaN,NaN,NaN,NaN,NaN,NaN,NaN
77131,73,F,scramble,0,2,3,faces,body_parts,30,40,Stimuli/Experimental_stims/scramble/faces/scrambled_good-faces-xmSWVeGEnJw-unsplash.jpg,Stimuli/Experimental_stims/scramble/body_parts/scrambled_klara-kulikova-TcUfF24fUMY-unsplash.jpg,NaN,NaN,1000,1875,NaN,NaN,0,NaN,NaN,NaN,NaN,NaN,NaN,NaN,NaN
77131,74,H,scramble,0,2,3,faces,outdoor_scenes,25,16,Stimuli/Experimental_stims/scramble/faces/scrambled_aiony-haust-jmATI5Q_YgY-unsplash.jpg,Stimuli/Experimental_stims/scramble/outdoor_scenes/scrambled_jarrett-kow-1ZOyYPOBn7I-unsplash.jpg,NaN,NaN,1000,692,NaN,NaN,0,NaN,NaN,NaN,NaN,NaN,NaN,NaN,NaN
77131,75,G,scramble,0,2,3,objects,outdoor_scenes,56,18,Stimuli/Experimental_stims/scramble/objects/scrambled_jonathan-greenaway-Y4hGgeiFn3s-unsplash.jpg,Stimuli/Experimental_stims/scramble/outdoor_scenes/scrambled_meng-ji-8BH_M-53CyA-unsplash.jpg,NaN,NaN,1000,1215,NaN,NaN,0,NaN,NaN,NaN,NaN,NaN,NaN,NaN,NaN
77131,76,E,scramble,0,2,3,objects,body_parts,52,45,Stimuli/Experimental_stims/scramble/objects/scrambled_fabian-blank-pElSkGRA2NU-unsplash.jpg,Stimuli/Experimental_stims/scramble/body_parts/scrambled_sincerely-media-7TBFwUQA6Xk-unsplash.jpg,NaN,NaN,3000,1476,NaN,NaN,0,NaN,NaN,NaN,NaN,NaN,NaN,NaN,NaN
77131,77,B,scramble,0,2,4,outdoor_scenes,faces,20,32,Stimuli/Experimental_stims/scramble/outdoor_scenes/scrambled_samsommer-vddccTqwal8-unsplash.jpg,Stimuli/Experimental_stims/scramble/faces/scrambled_justin-chen-J7Cf1Gch49E-unsplash.jpg,NaN,NaN,1500,521,NaN,NaN,0,NaN,NaN,NaN,NaN,NaN,NaN,NaN,NaN
77131,78,L,original,0,2,4,body_parts,faces,47,24,Stimuli/Experimental_stims/body_parts/tucker-good-36skLT5jZcc-unsplash.jpg,Stimuli/Experimental_stims/faces/abstral-official-cyOKLSgkgCE-unsplash.jpg,50,50,1500,NaN,NaN,NaN,0,NaN,NaN,NaN,NaN,NaN,NaN,NaN,NaN
77131,79,L,scramble,0,2,4,body_parts,faces,47,24,Stimuli/Experimental_stims/scramble/body_parts/scrambled_tucker-good-36skLT5jZcc-unsplash.jpg,Stimuli/Experimental_stims/scramble/faces/scrambled_abstral-official-cyOKLSgkgCE-unsplash.jpg,NaN,NaN,1000,829,NaN,NaN,0,NaN,NaN,NaN,NaN,NaN,NaN,NaN,NaN
77131,80,E,scramble,0,2,4,objects,body_parts,52,45,Stimuli/Experimental_stims/scramble/objects/scrambled_fabian-blank-pElSkGRA2NU-unsplash.jpg,Stimuli/Experimental_stims/scramble/body_parts/scrambled_sincerely-media-7TBFwUQA6Xk-unsplash.jpg,NaN,NaN,1000,1377,NaN,NaN,0,NaN,NaN,NaN,NaN,NaN,NaN,NaN,NaN
77131,81,J,original,0,2,4,faces,objects,26,59,Stimuli/Experimental_stims/faces/art-hauntington-jzY0KRJopEI-unsplash.jpg,Stimuli/Experimental_stims/objects/ronaldo-arthur-vidal-Cdz_lvnl37k-unsplash.jpg,50,50,2000,NaN,NaN,NaN,0,NaN,NaN,NaN,NaN,NaN,NaN,NaN,NaN
77131,82,C,scramble,0,2,4,outdoor_scenes,body_parts,22,43,Stimuli/Experimental_stims/scramble/outdoor_scenes/scrambled_stephen-leonardi-gyIRjKPXupE-unsplash.jpg,Stimuli/Experimental_stims/scramble/body_parts/scrambled_megan-menegay-UojxG_BJxnI-unsplash.jpg,NaN,NaN,3000,179,NaN,NaN,0,NaN,NaN,NaN,NaN,NaN,NaN,NaN,NaN
77131,83,E,original,0,2,4,objects,body_parts,52,45,Stimuli/Experimental_stims/objects/fabian-blank-pElSkGRA2NU-unsplash.jpg,Stimuli/Experimental_stims/body_parts/sincerely-media-7TBFwUQA6Xk-unsplash.jpg,50,50,3000,NaN,NaN,NaN,0,NaN,NaN,NaN,NaN,NaN,NaN,NaN,NaN
77131,84,G,scramble,0,2,4,objects,outdoor_scenes,56,18,Stimuli/Experimental_stims/scramble/objects/scrambled_jonathan-greenaway-Y4hGgeiFn3s-unsplash.jpg,Stimuli/Experimental_stims/scramble/outdoor_scenes/scrambled_meng-ji-8BH_M-53CyA-unsplash.jpg,NaN,NaN,3500,1495,NaN,NaN,0,NaN,NaN,NaN,NaN,NaN,NaN,NaN,NaN
77131,85,C,original,0,2,4,outdoor_scenes,body_parts,22,43,Stimuli/Experimental_stims/outdoor_scenes/stephen-leonardi-gyIRjKPXupE-unsplash.jpg,Stimuli/Experimental_stims/body_parts/megan-menegay-UojxG_BJxnI-unsplash.jpg,50,50,3000,NaN,NaN,NaN,0,NaN,NaN,NaN,NaN,NaN,NaN,NaN,NaN
77131,86,D,original,0,2,4,objects,faces,53,28,Stimuli/Experimental_stims/objects/insung-yoon-w2JtIQQXoRU-unsplash.jpg,Stimuli/Experimental_stims/faces/erik-lucatero-d2MSDujJl2g-unsplash.jpg,50,50,1000,NaN,NaN,NaN,0,NaN,NaN,NaN,NaN,NaN,NaN,NaN,NaN
77131,87,B,original,0,2,4,outdoor_scenes,faces,20,32,Stimuli/Experimental_stims/outdoor_scenes/samsommer-vddccTqwal8-unsplash.jpg,Stimuli/Experimental_stims/faces/justin-chen-J7Cf1Gch49E-unsplash.jpg,50,50,1000,NaN,NaN,NaN,0,NaN,NaN,NaN,NaN,NaN,NaN,NaN,NaN
77131,88,K,original,0,2,4,body_parts,objects,38,50,Stimuli/Experimental_stims/body_parts/engin-akyurt-x_3gyC42btc-unsplash.jpg,Stimuli/Experimental_stims/objects/andrew-petrov-TVJqDat4MAw-unsplash.jpg,50,50,1500,NaN,NaN,NaN,0,NaN,NaN,NaN,NaN,NaN,NaN,NaN,NaN
77131,89,D,scramble,0,2,4,objects,faces,53,28,Stimuli/Experimental_stims/scramble/objects/scrambled_insung-yoon-w2JtIQQXoRU-unsplash.jpg,Stimuli/Experimental_stims/scramble/faces/scrambled_erik-lucatero-d2MSDujJl2g-unsplash.jpg,NaN,NaN,2000,562,NaN,NaN,0,NaN,NaN,NaN,NaN,NaN,NaN,NaN,NaN
77131,90,A,original,0,2,4,outdoor_scenes,objects,13,54,Stimuli/Experimental_stims/outdoor_scenes/ashim-d-silva-S2Q5mdOrrVc-unsplash.jpg,Stimuli/Experimental_stims/objects/jess-bailey-nOeVi8DsN8U-unsplash.jpg,50,50,1000,NaN,NaN,NaN,0,NaN,NaN,NaN,NaN,NaN,NaN,NaN,NaN
77131,91,I,scramble,0,2,4,body_parts,outdoor_scenes,41,15,Stimuli/Experimental_stims/scramble/body_parts/scrambled_lucaxx-freire-CacZwMexYdk-unsplash.jpg,Stimuli/Experimental_stims/scramble/outdoor_scenes/scrambled_henry-be-NLF6hTe4PAg-unsplash.jpg,NaN,NaN,1000,1544,NaN,NaN,0,NaN,NaN,NaN,NaN,NaN,NaN,NaN,NaN
77131,92,F,original,0,2,4,faces,body_parts,30,40,Stimuli/Experimental_stims/faces/good-faces-xmSWVeGEnJw-unsplash.jpg,Stimuli/Experimental_stims/body_parts/klara-kulikova-TcUfF24fUMY-unsplash.jpg,50,50,1500,NaN,NaN,NaN,0,NaN,NaN,NaN,NaN,NaN,NaN,NaN,NaN
77131,93,I,original,0,2,4,body_parts,outdoor_scenes,41,15,Stimuli/Experimental_stims/body_parts/lucaxx-freire-CacZwMexYdk-unsplash.jpg,Stimuli/Experimental_stims/outdoor_scenes/henry-be-NLF6hTe4PAg-unsplash.jpg,50,50,2000,NaN,NaN,NaN,0,NaN,NaN,NaN,NaN,NaN,NaN,NaN,NaN
77131,94,K,scramble,0,2,4,body_parts,objects,38,50,Stimuli/Experimental_stims/scramble/body_parts/scrambled_engin-akyurt-x_3gyC42btc-unsplash.jpg,Stimuli/Experimental_stims/scramble/objects/scrambled_andrew-petrov-TVJqDat4MAw-unsplash.jpg,NaN,NaN,1000,1742,NaN,NaN,0,NaN,NaN,NaN,NaN,NaN,NaN,NaN,NaN
77131,95,A,scramble,0,2,4,outdoor_scenes,objects,13,54,Stimuli/Experimental_stims/scramble/outdoor_scenes/scrambled_ashim-d-silva-S2Q5mdOrrVc-unsplash.jpg,Stimuli/Experimental_stims/scramble/objects/scrambled_jess-bailey-nOeVi8DsN8U-unsplash.jpg,NaN,NaN,1500,679,NaN,NaN,0,NaN,NaN,NaN,NaN,NaN,NaN,NaN,NaN
77131,96,G,original,0,2,4,objects,outdoor_scenes,56,18,Stimuli/Experimental_stims/objects/jonathan-greenaway-Y4hGgeiFn3s-unsplash.jpg,Stimuli/Experimental_stims/outdoor_scenes/meng-ji-8BH_M-53CyA-unsplash.jpg,50,50,1000,NaN,NaN,NaN,0,NaN,NaN,NaN,NaN,NaN,NaN,NaN,NaN
77131,97,H,scramble,0,2,4,faces,outdoor_scenes,25,16,Stimuli/Experimental_stims/scramble/faces/scrambled_aiony-haust-jmATI5Q_YgY-unsplash.jpg,Stimuli/Experimental_stims/scramble/outdoor_scenes/scrambled_jarrett-kow-1ZOyYPOBn7I-unsplash.jpg,NaN,NaN,1500,567,NaN,NaN,0,NaN,NaN,NaN,NaN,NaN,NaN,NaN,NaN
77131,98,H,original,0,2,4,faces,outdoor_scenes,25,16,Stimuli/Experimental_stims/faces/aiony-haust-jmATI5Q_YgY-unsplash.jpg,Stimuli/Experimental_stims/outdoor_scenes/jarrett-kow-1ZOyYPOBn7I-unsplash.jpg,50,50,3500,NaN,NaN,NaN,0,NaN,NaN,NaN,NaN,NaN,NaN,NaN,NaN
77131,99,F,scramble,0,2,4,faces,body_parts,30,40,Stimuli/Experimental_stims/scramble/faces/scrambled_good-faces-xmSWVeGEnJw-unsplash.jpg,Stimuli/Experimental_stims/scramble/body_parts/scrambled_klara-kulikova-TcUfF24fUMY-unsplash.jpg,NaN,NaN,2000,1575,NaN,NaN,0,NaN,NaN,NaN,NaN,NaN,NaN,NaN,NaN
77131,100,J,scramble,0,2,4,faces,objects,26,59,Stimuli/Experimental_stims/scramble/faces/scrambled_art-hauntington-jzY0KRJopEI-unsplash.jpg,Stimuli/Experimental_stims/scramble/objects/scrambled_ronaldo-arthur-vidal-Cdz_lvnl37k-unsplash.jpg,NaN,NaN,3000,1714,NaN,NaN,0,NaN,NaN,NaN,NaN,NaN,NaN,NaN,NaN