PID,trial,pair_id,stim_type,practice,run,block,left_category,right_category,left_stimulus,right_stimulus,left_path,right_path,left_rating,right_rating,iti,scramble_screen_time,scramble_instructed_side,scramble_acc,no_response,rt,left_chosen,chosen_stimulus,unchosen_stimulus,chosen_category,unchosen_category,chosen_path,unchosen_path
123,1,prac1,original,1,0,0,NaN,NaN,NA,NA,Stimuli/Practice_stims/Deliberation/anthony-delanoix-Q0-fOL2nqZc-unsplash.jpg,Stimuli/Practice_stims/Deliberation/becca-tapert-sY5RjMB1KkE-unsplash.jpg,NA,NA,1500,NaN,NaN,NaN,0,NaN,NaN,NaN,NaN,NaN,NaN,NaN,NaN
123,2,prac2,scramble,1,0,0,NaN,NaN,NA,NA,Stimuli/Practice_stims/Deliberation/scramble/scrambled_clay-banks-1KPfcPdbWFM-unsplash.jpg,Stimuli/Practice_stims/Deliberation/scramble/scrambled_melissa-keizer-sV4Pd8wq5_o-unsplash.jpg,NA,NA,2500,2559,left,NaN,0,NaN,NaN,NaN,NaN,NaN,NaN,NaN,NaN
123,3,prac3,scramble,1,0,0,NaN,NaN,NA,NA,Stimuli/Practice_stims/Deliberation/scramble/scrambled_anthony-delanoix-Q0-fOL2nqZc-unsplash.jpg,Stimuli/Practice_stims/Deliberation/scramble/scrambled_becca-tapert-sY5RjMB1KkE-unsplash.jpg,NA,NA,3000,1450,right,NaN,0,NaN,NaN,NaN,NaN,NaN,NaN,NaN,NaN
123,4,prac4,original,1,0,0,NaN,NaN,NA,NA,Stimuli/Practice_stims/Deliberation/clay-banks-1KPfcPdbWFM-unsplash.jpg,Stimuli/Practice_stims/Deliberation/melissa-keizer-sV4Pd8wq5_o-unsplash.jpg,NA,NA,2000,NaN,NaN,NaN,0,NaN,NaN,NaN,NaN,NaN,NaN,NaN,NaN
123,5,F,original,0,1,1,faces,body_parts,27,45,Stimuli/Experimental_stims/faces/daniel-rigdon-dXmXKPP2L4E-unsplash.jpg,Stimuli/Experimental_stims/body_parts/sincerely-media-7TBFwUQA6Xk-unsplash.jpg,50,50,1000,NaN,NaN,NaN,0,NaN,NaN,NaN,NaN,NaN,NaN,NaN,NaN
123,6,E,scramble,0,1,1,objects,body_parts,48,42,Stimuli/Experimental_stims/scramble/objects/scrambled_alexander-andrews-JYGnB9gTCls-unsplash.jpg,Stimuli/Experimental_stims/scramble/body_parts/scrambled_lucrezia-carnelos-kn6QrWtnAtY-unsplash.jpg,NaN,NaN,1000,1117,left,NaN,0,NaN,NaN,NaN,NaN,NaN,NaN,NaN,NaN
123,7,J,original,0,1,1,faces,objects,33,55,Stimuli/Experimental_stims/faces/leilani-angel-K84vnnzxmTQ-unsplash.jpg,Stimuli/Experimental_stims/objects/jiangxulei1990-eIzzzwtkBjU-unsplash.jpg,50,50,2000,NaN,NaN,NaN,0,NaN,NaN,NaN,NaN,NaN,NaN,NaN,NaN
123,8,I,original,0,1,1,body_parts,outdoor_scenes,37,13,Stimuli/Experimental_stims/body_parts/engin-akyurt-Q2rfH3GW39c-unsplash.jpg,Stimuli/Experimental_stims/outdoor_scenes/ashim-d-silva-S2Q5mdOrrVc-unsplash.jpg,50,50,3500,NaN,NaN,NaN,0,NaN,NaN,NaN,NaN,NaN,NaN,NaN,NaN
123,9,K,original,0,1,1,body_parts,objects,47,51,Stimuli/Experimental_stims/body_parts/tucker-good-36skLT5jZcc-unsplash.jpg,Stimuli/Experimental_stims/objects/art-lasovsky-8XddFc6NkBY-unsplash.jpg,50,50,1500,NaN,NaN,NaN,0,NaN,NaN,NaN,NaN,NaN,NaN,NaN,NaN
123,10,E,original,0,1,1,objects,body_parts,48,42,Stimuli/Experimental_stims/objects/alexander-andrews-JYGnB9gTCls-unsplash.jpg,Stimuli/Experimental_stims/body_parts/lucrezia-carnelos-kn6QrWtnAtY-unsplash.jpg,50,50,1000,NaN,NaN,NaN,0,NaN,NaN,NaN,NaN,NaN,NaN,NaN,NaN
123,11,H,original,0,1,1,faces,outdoor_scenes,28,15,Stimuli/Experimental_stims/faces/erik-lucatero-d2MSDujJl2g-unsplash.jpg,Stimuli/Experimental_stims/outdoor_scenes/henry-be-NLF6hTe4PAg-unsplash.jpg,50,50,1500,NaN,NaN,NaN,0,NaN,NaN,NaN,NaN,NaN,NaN,NaN,NaN
123,12,L,scramble,0,1,1,body_parts,faces,38,26,Stimuli/Experimental_stims/scramble/body_parts/scrambled_engin-akyurt-x_3gyC42btc-unsplash.jpg,Stimuli/Experimental_stims/scramble/faces/scrambled_art-hauntington-jzY0KRJopEI-unsplash.jpg,NaN,NaN,3000,1463,right,NaN,0,NaN,NaN,NaN,NaN,NaN,NaN,NaN,NaN
123,13,C,scramble,0,1,1,outdoor_scenes,body_parts,14,41,Stimuli/Experimental_stims/scramble/outdoor_scenes/scrambled_bruno-van-der-kraan-qez8mNJ3ilU-unsplash.jpg,Stimuli/Experimental_stims/scramble/body_parts/scrambled_lucaxx-freire-CacZwMexYdk-unsplash.jpg,NaN,NaN,2000,940,left,NaN,0,NaN,NaN,NaN,NaN,NaN,NaN,NaN,NaN
123,14,B,original,0,1,1,outdoor_scenes,faces,23,35,Stimuli/Experimental_stims/outdoor_scenes/yuriy-bogdanov-W51VK3Obcj0-unsplash.jpg,Stimuli/Experimental_stims/faces/rikonavt-HQjfrvdTfak-unsplash.jpg,50,50,1000,NaN,NaN,NaN,0,NaN,NaN,NaN,NaN,NaN,NaN,NaN,NaN
123,15,G,original,0,1,1,objects,outdoor_scenes,52,17,Stimuli/Experimental_stims/objects/fabian-blank-pElSkGRA2NU-unsplash.jpg,Stimuli/Experimental_stims/outdoor_scenes/jeff-king-bJHWJeiHfHc-unsplash.jpg,50,50,1000,NaN,NaN,NaN,0,NaN,NaN,NaN,NaN,NaN,NaN,NaN,NaN
123,16,D,scramble,0,1,1,objects,faces,57,24,Stimuli/Experimental_stims/scramble/objects/scrambled_kuiye-chen-NuOGFo4PudE-unsplash.jpg,Stimuli/Experimental_stims/scramble/faces/scrambled_abstral-official-cyOKLSgkgCE-unsplash.jpg,NaN,NaN,1000,1891,left,NaN,0,NaN,NaN,NaN,NaN,NaN,NaN,NaN,NaN
123,17,L,original,0,1,1,body_parts,faces,38,26,Stimuli/Experimental_stims/body_parts/engin-akyurt-x_3gyC42btc-unsplash.jpg,Stimuli/Experimental_stims/faces/art-hauntington-jzY0KRJopEI-unsplash.jpg,50,50,3000,NaN,NaN,NaN,0,NaN,NaN,NaN,NaN,NaN,NaN,NaN,NaN
123,18,C,original,0,1,1,outdoor_scenes,body_parts,14,41,Stimuli/Experimental_stims/outdoor_scenes/bruno-van-der-kraan-qez8mNJ3ilU-unsplash.jpg,Stimuli/Experimental_stims/body_parts/lucaxx-freire-CacZwMexYdk-unsplash.jpg,50,50,2000,NaN,NaN,NaN,0,NaN,NaN,NaN,NaN,NaN,NaN,NaN,NaN
123,19,J,scramble,0,1,1,faces,objects,33,55,Stimuli/Experimental_stims/scramble/faces/scrambled_leilani-angel-K84vnnzxmTQ-unsplash.jpg,Stimuli/Experimental_stims/scramble/objects/scrambled_jiangxulei1990-eIzzzwtkBjU-unsplash.jpg,NaN,NaN,3000,1562,left,NaN,0,NaN,NaN,NaN,NaN,NaN,NaN,NaN,NaN
123,20,G,scramble,0,1,1,objects,outdoor_scenes,52,17,Stimuli/Experimental_stims/scramble/objects/scrambled_fabian-blank-pElSkGRA2NU-unsplash.jpg,Stimuli/Experimental_stims/scramble/outdoor_scenes/scrambled_jeff-king-bJHWJeiHfHc-unsplash.jpg,NaN,NaN,2000,1734,left,NaN,0,NaN,NaN,NaN,NaN,NaN,NaN,NaN,NaN
123,21,H,scramble,0,1,1,faces,outdoor_scenes,28,15,Stimuli/Experimental_stims/scramble/faces/scrambled_erik-lucatero-d2MSDujJl2g-unsplash.jpg,Stimuli/Experimental_stims/scramble/outdoor_scenes/scrambled_henry-be-NLF6hTe4PAg-unsplash.jpg,NaN,NaN,1000,1969,right,NaN,0,NaN,NaN,NaN,NaN,NaN,NaN,NaN,NaN
123,22,F,scramble,0,1,1,faces,body_parts,27,45,Stimuli/Experimental_stims/scramble/faces/scrambled_daniel-rigdon-dXmXKPP2L4E-unsplash.jpg,Stimuli/Experimental_stims/scramble/body_parts/scrambled_sincerely-media-7TBFwUQA6Xk-unsplash.jpg,NaN,NaN,1500,1593,right,NaN,0,NaN,NaN,NaN,NaN,NaN,NaN,NaN,NaN
123,23,D,original,0,1,1,objects,faces,57,24,Stimuli/Experimental_stims/objects/kuiye-chen-NuOGFo4PudE-unsplash.jpg,Stimuli/Experimental_stims/faces/abstral-official-cyOKLSgkgCE-unsplash.jpg,50,50,3000,NaN,NaN,NaN,0,NaN,NaN,NaN,NaN,NaN,NaN,NaN,NaN
123,24,A,scramble,0,1,1,outdoor_scenes,objects,12,54,Stimuli/Experimental_stims/scramble/outdoor_scenes/scrambled_aleksandra-boguslawska-MS7KD9Ti7FQ-unsplash.jpg,Stimuli/Experimental_stims/scramble/objects/scrambled_jess-bailey-nOeVi8DsN8U-unsplash.jpg,NaN,NaN,1500,1631,left,NaN,0,NaN,NaN,NaN,NaN,NaN,NaN,NaN,NaN
123,25,B,scramble,0,1,1,outdoor_scenes,faces,23,35,Stimuli/Experimental_stims/scramble/outdoor_scenes/scrambled_yuriy-bogdanov-W51VK3Obcj0-unsplash.jpg,Stimuli/Experimental_stims/scramble/faces/scrambled_rikonavt-HQjfrvdTfak-unsplash.jpg,NaN,NaN,3500,1933,right,NaN,0,NaN,NaN,NaN,NaN,NaN,NaN,NaN,NaN
123,26,K,scramble,0,1,1,body_parts,objects,47,51,Stimuli/Experimental_stims/scramble/body_parts/scrambled_tucker-good-36skLT5jZcc-unsplash.jpg,Stimuli/Experimental_stims/scramble/objects/scrambled_art-lasovsky-8XddFc6NkBY-unsplash.jpg,NaN,NaN,1500,1930,right,NaN,0,NaN,NaN,NaN,NaN,NaN,NaN,NaN,NaN
123,27,I,scramble,0,1,1,body_parts,outdoor_scenes,37,13,Stimuli/Experimental_stims/scramble/body_parts/scrambled_engin-akyurt-Q2rfH3GW39c-unsplash.jpg,Stimuli/Experimental_stims/scramble/outdoor_scenes/scrambled_ashim-d-silva-S2Q5mdOrrVc-unsplash.jpg,NaN,NaN,1000,936,right,NaN,0,NaN,NaN,NaN,NaN,NaN,NaN,NaN,NaN
123,28,A,original,0,1,1,outdoor_scenes,objects,12,54,Stimuli/Experimental_stims/outdoor_scenes/aleksandra-boguslawska-MS7KD9Ti7FQ-unsplash.jpg,Stimuli/Experimental_stims/objects/jess-bailey-nOeVi8DsN8U-unsplash.jpg,50,50,1500,NaN,NaN,NaN,0,NaN,NaN,NaN,NaN,NaN,NaN,NaN,NaN
123,29,H,original,0,1,2,faces,outdoor_scenes,28,15,Stimuli/Experimental_stims/faces/erik-lucatero-d2MSDujJl2g-unsplash.jpg,Stimuli/Experimental_stims/outdoor_scenes/henry-be-NLF6hTe4PAg-unsplash.jpg,50,50,2000,NaN,NaN,NaN,0,NaN,NaN,NaN,NaN,NaN,NaN,NaN,NaN
123,30,G,scramble,0,1,2,objects,outdoor_scenes,52,17,Stimuli/Experimental_stims/scramble/objects/scrambled_fabian-blank-pElSkGRA2NU-unsplash.jpg,Stimuli/Experimental_stims/scramble/outdoor_scenes/scrambled_jeff-king-bJHWJeiHfHc-unsplash.jpg,NaN,NaN,2000,1628,left,NaN,0,NaN,NaN,NaN,NaN,NaN,NaN,NaN,NaN
123,31,C,scramble,0,1,2,outdoor_scenes,body_parts,14,41,Stimuli/Experimental_stims/scramble/outdoor_scenes/scrambled_bruno-van-der-kraan-qez8mNJ3ilU-unsplash.jpg,Stimuli/Experimental_stims/scramble/body_parts/scrambled_lucaxx-freire-CacZwMexYdk-unsplash.jpg,NaN,NaN,1500,1609,left,NaN,0,NaN,NaN,NaN,NaN,NaN,NaN,NaN,NaN
123,32,L,original,0,1,2,body_parts,faces,38,26,Stimuli/Experimental_stims/body_parts/engin-akyurt-x_3gyC42btc-unsplash.jpg,Stimuli/Experimental_stims/faces/art-hauntington-jzY0KRJopEI-unsplash.jpg,50,50,1000,NaN,NaN,NaN,0,NaN,NaN,NaN,NaN,NaN,NaN,NaN,NaN
123,33,H,scramble,0,1,2,faces,outdoor_scenes,28,15,Stimuli/Experimental_stims/scramble/faces/scrambled_erik-lucatero-d2MSDujJl2g-unsplash.jpg,Stimuli/Experimental_stims/scramble/outdoor_scenes/scrambled_henry-be-NLF6hTe4PAg-unsplash.jpg,NaN,NaN,1500,1747,left,NaN,0,NaN,NaN,NaN,NaN,NaN,NaN,NaN,NaN
123,34,K,scramble,0,1,2,body_parts,objects,47,51,Stimuli/Experimental_stims/scramble/body_parts/scrambled_tucker-good-36skLT5jZcc-unsplash.jpg,Stimuli/Experimental_stims/scramble/objects/scrambled_art-lasovsky-8XddFc6NkBY-unsplash.jpg,NaN,NaN,2000,1990,right,NaN,0,NaN,NaN,NaN,NaN,NaN,NaN,NaN,NaN
123,35,J,original,0,1,2,faces,objects,33,55,Stimuli/Experimental_stims/faces/leilani-angel-K84vnnzxmTQ-unsplash.jpg,Stimuli/Experimental_stims/objects/jiangxulei1990-eIzzzwtkBjU-unsplash.jpg,50,50,3500,NaN,NaN,NaN,0,NaN,NaN,NaN,NaN,NaN,NaN,NaN,NaN
123,36,C,original,0,1,2,outdoor_scenes,body_parts,14,41,Stimuli/Experimental_stims/outdoor_scenes/bruno-van-der-kraan-qez8mNJ3ilU-unsplash.jpg,Stimuli/Experimental_stims/body_parts/lucaxx-freire-CacZwMexYdk-unsplash.jpg,50,50,1500,NaN,NaN,NaN,0,NaN,NaN,NaN,NaN,NaN,NaN,NaN,NaN
123,37,K,original,0,1,2,body_parts,objects,47,51,Stimuli/Experimental_stims/body_parts/tucker-good-36skLT5jZcc-unsplash.jpg,Stimuli/Experimental_stims/objects/art-lasovsky-8XddFc6NkBY-unsplash.jpg,50,50,1500,NaN,NaN,NaN,0,NaN,NaN,NaN,NaN,NaN,NaN,NaN,NaN
123,38,B,scramble,0,1,2,outdoor_scenes,faces,23,35,Stimuli/Experimental_stims/scramble/outdoor_scenes/scrambled_yuriy-bogdanov-W51VK3Obcj0-unsplash.jpg,Stimuli/Experimental_stims/scramble/faces/scrambled_rikonavt-HQjfrvdTfak-unsplash.jpg,NaN,NaN,1500,1061,left,NaN,0,NaN,NaN,NaN,NaN,NaN,NaN,NaN,NaN
123,39,G,original,0,1,2,objects,outdoor_scenes,52,17,Stimuli/Experimental_stims/objects/fabian-blank-pElSkGRA2NU-unsplash.jpg,Stimuli/Experimental_stims/outdoor_scenes/jeff-king-bJHWJeiHfHc-unsplash.jpg,50,50,1000,NaN,NaN,NaN,0,NaN,NaN,NaN,NaN,NaN,NaN,NaN,NaN
123,40,E,scramble,0,1,2,objects,body_parts,48,42,Stimuli/Experimental_stims/scramble/objects/scrambled_alexander-andrews-JYGnB9gTCls-unsplash.jpg,Stimuli/Experimental_stims/scramble/body_parts/scrambled_lucrezia-carnelos-kn6QrWtnAtY-unsplash.jpg,NaN,NaN,3000,1602,left,NaN,0,NaN,NaN,NaN,NaN,NaN,NaN,NaN,NaN
123,41,J,scramble,0,1,2,faces,objects,33,55,Stimuli/Experimental_stims/scramble/faces/scrambled_leilani-angel-K84vnnzxmTQ-unsplash.jpg,Stimuli/Experimental_stims/scramble/objects/scrambled_jiangxulei1990-eIzzzwtkBjU-unsplash.jpg,NaN,NaN,1000,1431,right,NaN,0,NaN,NaN,NaN,NaN,NaN,NaN,NaN,NaN
123,42,L,scramble,0,1,2,body_parts,faces,38,26,Stimuli/Experimental_stims/scramble/body_parts/scrambled_engin-akyurt-x_3gyC42btc-unsplash.jpg,Stimuli/Experimental_stims/scramble/faces/scrambled_art-hauntington-jzY0KRJopEI-unsplash.jpg,NaN,NaN,1000,1205,right,NaN,0,NaN,NaN,NaN,NaN,NaN,NaN,NaN,NaN
123,43,A,original,0,1,2,outdoor_scenes,objects,12,54,Stimuli/Experimental_stims/outdoor_scenes/aleksandra-boguslawska-MS7KD9Ti7FQ-unsplash.jpg,Stimuli/Experimental_stims/objects/jess-bailey-nOeVi8DsN8U-unsplash.jpg,50,50,1500,NaN,NaN,NaN,0,NaN,NaN,NaN,NaN,NaN,NaN,NaN,NaN
123,44,A,scramble,0,1,2,outdoor_scenes,objects,12,54,Stimuli/Experimental_stims/scramble/outdoor_scenes/scrambled_aleksandra-boguslawska-MS7KD9Ti7FQ-unsplash.jpg,Stimuli/Experimental_stims/scramble/objects/scrambled_jess-bailey-nOeVi8DsN8U-unsplash.jpg,NaN,NaN,3500,1180,right,NaN,0,NaN,NaN,NaN,NaN,NaN,NaN,NaN,NaN
123,45,D,scramble,0,1,2,objects,faces,57,24,Stimuli/Experimental_stims/scramble/objects/scrambled_kuiye-chen-NuOGFo4PudE-unsplash.jpg,Stimuli/Experimental_stims/scramble/faces/scrambled_abstral-official-cyOKLSgkgCE-unsplash.jpg,NaN,NaN,3000,1181,left,NaN,0,NaN,NaN,NaN,NaN,NaN,NaN,NaN,NaN
123,46,I,original,0,1,2,body_parts,outdoor_scenes,37,13,Stimuli/Experimental_stims/body_parts/engin-akyurt-Q2rfH3GW39c-unsplash.jpg,Stimuli/Experimental_stims/outdoor_scenes/ashim-d-silva-S2Q5mdOrrVc-unsplash.jpg,50,50,3000,NaN,NaN,NaN,0,NaN,NaN,NaN,NaN,NaN,NaN,NaN,NaN
123,47,I,scramble,0,1,2,body_parts,outdoor_scenes,37,13,Stimuli/Experimental_stims/scramble/body_parts/scrambled_engin-akyurt-Q2rfH3GW39c-unsplash.jpg,Stimuli/Experimental_stims/scramble/outdoor_scenes/scrambled_ashim-d-silva-S2Q5mdOrrVc-unsplash.jpg,NaN,NaN,1000,1862,right,NaN,0,NaN,NaN,NaN,NaN,NaN,NaN,NaN,NaN
123,48,D,original,0,1,2,objects,faces,57,24,Stimuli/Experimental_stims/objects/kuiye-chen-NuOGFo4PudE-unsplash.jpg,Stimuli/Experimental_stims/faces/abstral-official-cyOKLSgkgCE-unsplash.jpg,50,50,1000,NaN,NaN,NaN,0,NaN,NaN,NaN,NaN,NaN,NaN,NaN,NaN
123,49,F,original,0,1,2,faces,body_parts,27,45,Stimuli/Experimental_stims/faces/daniel-rigdon-dXmXKPP2L4E-unsplash.jpg,Stimuli/Experimental_stims/body_parts/sincerely-media-7TBFwUQA6Xk-unsplash.jpg,50,50,1000,NaN,NaN,NaN,0,NaN,NaN,NaN,NaN,NaN,NaN,NaN,NaN
123,50,F,scramble,0,1,2,faces,body_parts,27,45,Stimuli/Experimental_stims/scramble/faces/scrambled_daniel-rigdon-dXmXKPP2L4E-unsplash.jpg,Stimuli/Experimental_stims/scramble/body_parts/scrambled_sincerely-media-7TBFwUQA6Xk-unsplash.jpg,NaN,NaN,1000,1340,right,NaN,0,NaN,NaN,NaN,NaN,NaN,NaN,NaN,NaN
123,51,B,original,0,1,2,outdoor_scenes,faces,23,35,Stimuli/Experimental_stims/outdoor_scenes/yuriy-bogdanov-W51VK3Obcj0-unsplash.jpg,Stimuli/Experimental_stims/faces/rikonavt-HQjfrvdTfak-unsplash.jpg,50,50,3000,NaN,NaN,NaN,0,NaN,NaN,NaN,NaN,NaN,NaN,NaN,NaN
123,52,E,original,0,1,2,objects,body_parts,48,42,Stimuli/Experimental_stims/objects/alexander-andrews-JYGnB9gTCls-unsplash.jpg,Stimuli/Experimental_stims/body_parts/lucrezia-carnelos-kn6QrWtnAtY-unsplash.jpg,50,50,2000,NaN,NaN,NaN,0,NaN,NaN,NaN,NaN,NaN,NaN,NaN,NaN
123,53,F,original,0,2,3,faces,body_parts,27,45,Stimuli/Experimental_stims/faces/daniel-rigdon-dXmXKPP2L4E-unsplash.jpg,Stimuli/Experimental_stims/body_parts/sincerely-media-7TBFwUQA6Xk-unsplash.jpg,50,50,1000,NaN,NaN,NaN,0,NaN,NaN,NaN,NaN,NaN,NaN,NaN,NaN
123,54,C,original,0,2,3,outdoor_scenes,body_parts,14,41,Stimuli/Experimental_stims/outdoor_scenes/bruno-van-der-kraan-qez8mNJ3ilU-unsplash.jpg,Stimuli/Experimental_stims/body_parts/lucaxx-freire-CacZwMexYdk-unsplash.jpg,50,50,1000,NaN,NaN,NaN,0,NaN,NaN,NaN,NaN,NaN,NaN,NaN,NaN
123,55,K,original,0,2,3,body_parts,objects,47,51,Stimuli/Experimental_stims/body_parts/tucker-good-36skLT5jZcc-unsplash.jpg,Stimuli/Experimental_stims/objects/art-lasovsky-8XddFc6NkBY-unsplash.jpg,50,50,1000,NaN,NaN,NaN,0,NaN,NaN,NaN,NaN,NaN,NaN,NaN,NaN
123,56,B,scramble,0,2,3,outdoor_scenes,faces,23,35,Stimuli/Experimental_stims/scramble/outdoor_scenes/scrambled_yuriy-bogdanov-W51VK3Obcj0-unsplash.jpg,Stimuli/Experimental_stims/scramble/faces/scrambled_rikonavt-HQjfrvdTfak-unsplash.jpg,NaN,NaN,1500,1821,right,NaN,0,NaN,NaN,NaN,NaN,NaN,NaN,NaN,NaN
123,57,A,original,0,2,3,outdoor_scenes,objects,12,54,Stimuli/Experimental_stims/outdoor_scenes/aleksandra-boguslawska-MS7KD9Ti7FQ-unsplash.jpg,Stimuli/Experimental_stims/objects/jess-bailey-nOeVi8DsN8U-unsplash.jpg,50,50,1500,NaN,NaN,NaN,0,NaN,NaN,NaN,NaN,NaN,NaN,NaN,NaN
123,58,I,original,0,2,3,body_parts,outdoor_scenes,37,13,Stimuli/Experimental_stims/body_parts/engin-akyurt-Q2rfH3GW39c-unsplash.jpg,Stimuli/Experimental_stims/outdoor_scenes/ashim-d-silva-S2Q5mdOrrVc-unsplash.jpg,50,50,2000,NaN,NaN,NaN,0,NaN,NaN,NaN,NaN,NaN,NaN,NaN,NaN
123,59,E,scramble,0,2,3,objects,body_parts,48,42,Stimuli/Experimental_stims/scramble/objects/scrambled_alexander-andrews-JYGnB9gTCls-unsplash.jpg,Stimuli/Experimental_stims/scramble/body_parts/scrambled_lucrezia-carnelos-kn6QrWtnAtY-unsplash.jpg,NaN,NaN,3000,1782,right,NaN,0,NaN,NaN,NaN,NaN,NaN,NaN,NaN,NaN
123,60,J,scramble,0,2,3,faces,objects,33,55,Stimuli/Experimental_stims/scramble/faces/scrambled_leilani-angel-K84vnnzxmTQ-unsplash.jpg,Stimuli/Experimental_stims/scramble/objects/scrambled_jiangxulei1990-eIzzzwtkBjU-unsplash.jpg,NaN,NaN,1000,1931,left,NaN,0,NaN,NaN,NaN,NaN,NaN,NaN,NaN,NaN
123,61,H,original,0,2,3,faces,outdoor_scenes,28,15,Stimuli/Experimental_stims/faces/erik-lucatero-d2MSDujJl2g-unsplash.jpg,Stimuli/Experimental_stims/outdoor_scenes/henry-be-NLF6hTe4PAg-unsplash.jpg,50,50,1000,NaN,NaN,NaN,0,NaN,NaN,NaN,NaN,NaN,NaN,NaN,NaN
123,62,A,scramble,0,2,3,outdoor_scenes,objects,12,54,Stimuli/Experimental_stims/scramble/outdoor_scenes/scrambled_aleksandra-boguslawska-MS7KD9Ti7FQ-unsplash.jpg,Stimuli/Experimental_stims/scramble/objects/scrambled_jess-bailey-nOeVi8DsN8U-unsplash.jpg,NaN,NaN,1000,1981,left,NaN,0,NaN,NaN,NaN,NaN,NaN,NaN,NaN,NaN
123,63,D,original,0,2,3,objects,faces,57,24,Stimuli/Experimental_stims/objects/kuiye-chen-NuOGFo4PudE-unsplash.jpg,Stimuli/Experimental_stims/faces/abstral-official-cyOKLSgkgCE-unsplash.jpg,50,50,3000,NaN,NaN,NaN,0,NaN,NaN,NaN,NaN,NaN,NaN,NaN,NaN
123,64,C,scramble,0,2,3,outdoor_scenes,body_parts,14,41,Stimuli/Experimental_stims/scramble/outdoor_scenes/scrambled_bruno-van-der-kraan-qez8mNJ3ilU-unsplash.jpg,Stimuli/Experimental_stims/scramble/body_parts/scrambled_lucaxx-freire-CacZwMexYdk-unsplash.jpg,NaN,NaN,3500,984,right,NaN,0,NaN,NaN,NaN,NaN,NaN,NaN,NaN,NaN
123,65,F,scramble,0,2,3,faces,body_parts,27,45,Stimuli/Experimental_stims/scramble/faces/scrambled_daniel-rigdon-dXmXKPP2L4E-unsplash.jpg,Stimuli/Experimental_stims/scramble/body_parts/scrambled_sincerely-media-7TBFwUQA6Xk-unsplash.jpg,NaN,NaN,3000,932,right,NaN,0,NaN,NaN,NaN,NaN,NaN,NaN,NaN,NaN
123,66,D,scramble,0,2,3,objects,faces,57,24,Stimuli/Experimental_stims/scramble/objects/scrambled_kuiye-chen-NuOGFo4PudE-unsplash.jpg,Stimuli/Experimental_stims/scramble/faces/scrambled_abstral-official-cyOKLSgkgCE-unsplash.jpg,NaN,NaN,2000,987,right,NaN,0,NaN,NaN,NaN,NaN,NaN,NaN,NaN,NaN
123,67,B,original,0,2,3,outdoor_scenes,faces,23,35,Stimuli/Experimental_stims/outdoor_scenes/yuriy-bogdanov-W51VK3Obcj0-unsplash.jpg,Stimuli/Experimental_stims/faces/rikonavt-HQjfrvdTfak-unsplash.jpg,50,50,3500,NaN,NaN,NaN,0,NaN,NaN,NaN,NaN,NaN,NaN,NaN,NaN
123,68,H,scramble,0,2,3,faces,outdoor_scenes,28,15,Stimuli/Experimental_stims/scramble/faces/scrambled_erik-lucatero-d2MSDujJl2g-unsplash.jpg,Stimuli/Experimental_stims/scramble/outdoor_scenes/scrambled_henry-be-NLF6hTe4PAg-unsplash.jpg,NaN,NaN,2000,1155,left,NaN,0,NaN,NaN,NaN,NaN,NaN,NaN,NaN,NaN
123,69,G,original,0,2,3,objects,outdoor_scenes,52,17,Stimuli/Experimental_stims/objects/fabian-blank-pElSkGRA2NU-unsplash.jpg,Stimuli/Experimental_stims/outdoor_scenes/jeff-king-bJHWJeiHfHc-unsplash.jpg,50,50,3000,NaN,NaN,NaN,0,NaN,NaN,NaN,NaN,NaN,NaN,NaN,NaN
123,70,K,scramble,0,2,3,body_parts,objects,47,51,Stimuli/Experimental_stims/scramble/body_parts/scrambled_tucker-good-36skLT5jZcc-unsplash.jpg,Stimuli/Experimental_stims/scramble/objects/scrambled_art-lasovsky-8XddFc6NkBY-unsplash.jpg,NaN,NaN,1500,906,left,NaN,0,NaN,NaN,NaN,NaN,NaN,NaN,NaN,NaN
123,71,G,scramble,0,2,3,objects,outdoor_scenes,52,17,Stimuli/Experimental_stims/scramble/objects/scrambled_fabian-blank-pElSkGRA2NU-unsplash.jpg,Stimuli/Experimental_stims/scramble/outdoor_scenes/scrambled_jeff-king-bJHWJeiHfHc-unsplash.jpg,NaN,NaN,1000,1174,left,NaN,0,NaN,NaN,NaN,NaN,NaN,NaN,NaN,NaN
123,72,L,scramble,0,2,3,body_parts,faces,38,26,Stimuli/Experimental_stims/scramble/body_parts/scrambled_engin-akyurt-x_3gyC42btc-unsplash.jpg,Stimuli/Experimental_stims/scramble/faces/scrambled_art-hauntington-jzY0KRJopEI-unsplash.jpg,NaN,NaN,1500,1496,right,NaN,0,NaN,NaN,NaN,NaN,NaN,NaN,NaN,NaN
123,73,I,scramble,0,2,3,body_parts,outdoor_scenes,37,13,Stimuli/Experimental_stims/scramble/body_parts/scrambled_engin-akyurt-Q2rfH3GW39c-unsplash.jpg,Stimuli/Experimental_stims/scramble/outdoor_scenes/scrambled_ashim-d-silva-S2Q5mdOrrVc-unsplash.jpg,NaN,NaN,1000,1854,left,NaN,0,NaN,NaN,NaN,NaN,NaN,NaN,NaN,NaN
123,74,J,original,0,2,3,faces,objects,33,55,Stimuli/Experimental_stims/faces/leilani-angel-K84vnnzxmTQ-unsplash.jpg,Stimuli/Experimental_stims/objects/jiangxulei1990-eIzzzwtkBjU-unsplash.jpg,50,50,1500,NaN,NaN,NaN,0,NaN,NaN,NaN,NaN,NaN,NaN,NaN,NaN
123,75,E,original,0,2,3,objects,body_parts,48,42,Stimuli/Experimental_stims/objects/alexander-andrews-JYGnB9gTCls-unsplash.jpg,Stimuli/Experimental_stims/body_parts/lucrezia-carnelos-kn6QrWtnAtY-unsplash.jpg,50,50,2000,NaN,NaN,NaN,0,NaN,NaN,NaN,NaN,NaN,NaN,NaN,NaN
123,76,L,original,0,2,3,body_parts,faces,38,26,Stimuli/Experimental_stims/body_parts/engin-akyurt-x_3gyC42btc-unsplash.jpg,Stimuli/Experimental_stims/faces/art-hauntington-jzY0KRJopEI-unsplash.jpg,50,50,1500,NaN,NaN,NaN,0,NaN,NaN,NaN,NaN,NaN,NaN,NaN,NaN
123,77,I,scramble,0,2,4,body_parts,outdoor_scenes,37,13,Stimuli/Experimental_stims/scramble/body_parts/scrambled_engin-akyurt-Q2rfH3GW39c-unsplash.jpg,Stimuli/Experimental_stims/scramble/outdoor_scenes/scrambled_ashim-d-silva-S2Q5mdOrrVc-unsplash.jpg,NaN,NaN,1500,881,left,NaN,0,NaN,NaN,NaN,NaN,NaN,NaN,NaN,NaN
123,78,F,scramble,0,2,4,faces,body_parts,27,45,Stimuli/Experimental_stims/scramble/faces/scrambled_daniel-rigdon-dXmXKPP2L4E-unsplash.jpg,Stimuli/Experimental_stims/scramble/body_parts/scrambled_sincerely-media-7TBFwUQA6Xk-unsplash.jpg,NaN,NaN,1000,468,left,NaN,0,NaN,NaN,NaN,NaN,NaN,NaN,NaN,NaN
123,79,B,original,0,2,4,outdoor_scenes,faces,23,35,Stimuli/Experimental_stims/outdoor_scenes/yuriy-bogdanov-W51VK3Obcj0-unsplash.jpg,Stimuli/Experimental_stims/faces/rikonavt-HQjfrvdTfak-unsplash.jpg,50,50,2000,NaN,NaN,NaN,0,NaN,NaN,NaN,NaN,NaN,NaN,NaN,NaN
123,80,D,scramble,0,2,4,objects,faces,57,24,Stimuli/Experimental_stims/scramble/objects/scrambled_kuiye-chen-NuOGFo4PudE-unsplash.jpg,Stimuli/Experimental_stims/scramble/faces/scrambled_abstral-official-cyOKLSgkgCE-unsplash.jpg,NaN,NaN,1500,1529,right,NaN,0,NaN,NaN,NaN,NaN,NaN,NaN,NaN,NaN
123,81,B,scramble,0,2,4,outdoor_scenes,faces,23,35,Stimuli/Experimental_stims/scramble/outdoor_scenes/scrambled_yuriy-bogdanov-W51VK3Obcj0-unsplash.jpg,Stimuli/Experimental_stims/scramble/faces/scrambled_rikonavt-HQjfrvdTfak-unsplash.jpg,NaN,NaN,1000,1032,right,NaN,0,NaN,NaN,NaN,NaN,NaN,NaN,NaN,NaN
123,82,I,original,0,2,4,body_parts,outdoor_scenes,37,13,Stimuli/Experimental_stims/body_parts/engin-akyurt-Q2rfH3GW39c-unsplash.jpg,Stimuli/Experimental_stims/outdoor_scenes/ashim-d-silva-S2Q5mdOrrVc-unsplash.jpg,50,50,1500,NaN,NaN,NaN,0,NaN,NaN,NaN,NaN,NaN,NaN,NaN,NaN
123,83,E,original,0,2,4,objects,body_parts,48,42,Stimuli/Experimental_stims/objects/alexander-andrews-JYGnB9gTCls-unsplash.jpg,Stimuli/Experimental_stims/body_parts/lucrezia-carnelos-kn6QrWtnAtY-unsplash.jpg,50,50,2000,NaN,NaN,NaN,0,NaN,NaN,NaN,NaN,NaN,NaN,NaN,NaN
123,84,K,scramble,0,2,4,body_parts,objects,47,51,Stimuli/Experimental_stims/scramble/body_parts/scrambled_tucker-good-36skLT5jZcc-unsplash.jpg,Stimuli/Experimental_stims/scramble/objects/scrambled_art-lasovsky-8XddFc6NkBY-unsplash.jpg,NaN,NaN,3000,1329,right,NaN,0,NaN,NaN,NaN,NaN,NaN,NaN,NaN,NaN
123,85,H,scramble,0,2,4,faces,outdoor_scenes,28,15,Stimuli/Experimental_stims/scramble/faces/scrambled_erik-lucatero-d2MSDujJl2g-unsplash.jpg,Stimuli/Experimental_stims/scramble/outdoor_scenes/scrambled_henry-be-NLF6hTe4PAg-unsplash.jpg,NaN,NaN,2000,1386,right,NaN,0,NaN,NaN,NaN,NaN,NaN,NaN,NaN,NaN
123,86,C,scramble,0,2,4,outdoor_scenes,body_parts,14,41,Stimuli/Experimental_stims/scramble/outdoor_scenes/scrambled_bruno-van-der-kraan-qez8mNJ3ilU-unsplash.jpg,Stimuli/Experimental_stims/scramble/body_parts/scrambled_lucaxx-freire-CacZwMexYdk-unsplash.jpg,NaN,NaN,2000,1604,right,NaN,0,NaN,NaN,NaN,NaN,NaN,NaN,NaN,NaN
123,87,A,original,0,2,4,outdoor_scenes,objects,12,54,Stimuli/Experimental_stims/outdoor_scenes/aleksandra-boguslawska-MS7KD9Ti7FQ-unsplash.jpg,Stimuli/Experimental_stims/objects/jess-bailey-nOeVi8DsN8U-unsplash.jpg,50,50,1000,NaN,NaN,NaN,0,NaN,NaN,NaN,NaN,NaN,NaN,NaN,NaN
123,88,L,original,0,2,4,body_parts,faces,38,26,Stimuli/Experimental_stims/body_parts/engin-akyurt-x_3gyC42btc-unsplash.jpg,Stimuli/Experimental_stims/faces/art-hauntington-jzY0KRJopEI-unsplash.jpg,50,50,3000,NaN,NaN,NaN,0,NaN,NaN,NaN,NaN,NaN,NaN,NaN,NaN
123,89,C,original,0,2,4,outdoor_scenes,body_parts,14,41,Stimuli/Experimental_stims/outdoor_scenes/bruno-van-der-kraan-qez8mNJ3ilU-unsplash.jpg,Stimuli/Experimental_stims/body_parts/lucaxx-freire-CacZwMexYdk-unsplash.jpg,50,50,1500,NaN,NaN,NaN,0,NaN,NaN,NaN,NaN,NaN,NaN,NaN,NaN
123,90,A,scramble,0,2,4,outdoor_scenes,objects,12,54,Stimuli/Experimental_stims/scramble/outdoor_scenes/scrambled_aleksandra-boguslawska-MS7KD9Ti7FQ-unsplash.jpg,Stimuli/Experimental_stims/scramble/objects/scrambled_jess-bailey-nOeVi8DsN8U-unsplash.jpg,NaN,NaN,1500,1665,left,NaN,0,NaN,NaN,NaN,NaN,NaN,NaN,NaN,NaN
123,91,G,original,0,2,4,objects,outdoor_scenes,52,17,Stimuli/Experimental_stims/objects/fabian-blank-pElSkGRA2NU-unsplash.jpg,Stimuli/Experimental_stims/outdoor_scenes/jeff-king-bJHWJeiHfHc-unsplash.jpg,50,50,3000,NaN,NaN,NaN,0,NaN,NaN,NaN,NaN,NaN,NaN,NaN,NaN
123,92,E,scramble,0,2,4,objects,body_parts,48,42,Stimuli/Experimental_stims/scramble/objects/scrambled_alexander-andrews-JYGnB9gTCls-unsplash.jpg,Stimuli/Experimental_stims/scramble/body_parts/scrambled_lucrezia-carnelos-kn6QrWtnAtY-unsplash.jpg,NaN,NaN,1000,858,left,NaN,0,NaN,NaN,NaN,NaN,NaN,NaN,NaN,NaN
123,93,F,original,0,2,4,faces,body_parts,27,45,Stimuli/Experimental_stims/faces/daniel-rigdon-dXmXKPP2L4E-unsplash.jpg,Stimuli/Experimental_stims/body_parts/sincerely-media-7TBFwUQA6Xk-unsplash.jpg,50,50,1000,NaN,NaN,NaN,0,NaN,NaN,NaN,NaN,NaN,NaN,NaN,NaN
123,94,K,original,0,2,4,body_parts,objects,47,51,Stimuli/Experimental_stims/body_parts/tucker-good-36skLT5jZcc-unsplash.jpg,Stimuli/Experimental_stims/objects/art-lasovsky-8XddFc6NkBY-unsplash.jpg,50,50,1000,NaN,NaN,NaN,0,NaN,NaN,NaN,NaN,NaN,NaN,NaN,NaN
123,95,L,scramble,0,2,4,body_parts,faces,38,26,Stimuli/Experimental_stims/scramble/body_parts/scrambled_engin-akyurt-x_3gyC42btc-unsplash.jpg,Stimuli/Experimental_stims/scramble/faces/scrambled_art-hauntington-jzY0KRJopEI-unsplash.jpg,NaN,NaN,1000,665,left,NaN,0,NaN,NaN,NaN,NaN,NaN,NaN,NaN,NaN
123,96,G,scramble,0,2,4,objects,outdoor_scenes,52,17,Stimuli/Experimental_stims/scramble/objects/scrambled_fabian-blank-pElSkGRA2NU-unsplash.jpg,Stimuli/Experimental_stims/scramble/outdoor_scenes/scrambled_jeff-king-bJHWJeiHfHc-unsplash.jpg,NaN,NaN,3000,579,left,NaN,0,NaN,NaN,NaN,NaN,NaN,NaN,NaN,NaN
123,97,H,original,0,2,4,faces,outdoor_scenes,28,15,Stimuli/Experimental_stims/faces/erik-lucatero-d2MSDujJl2g-unsplash.jpg,Stimuli/Experimental_stims/outdoor_scenes/henry-be-NLF6hTe4PAg-unsplash.jpg,50,50,3500,NaN,NaN,NaN,0,NaN,NaN,NaN,NaN,NaN,NaN,NaN,NaN
123,98,J,scramble,0,2,4,faces,objects,33,55,Stimuli/Experimental_stims/scramble/faces/scrambled_leilani-angel-K84vnnzxmTQ-unsplash.jpg,Stimuli/Experimental_stims/scramble/objects/scrambled_jiangxulei1990-eIzzzwtkBjU-unsplash.jpg,NaN,NaN,3500,1085,right,NaN,0,NaN,NaN,NaN,NaN,NaN,NaN,NaN,NaN
123,99,D,original,0,2,4,objects,faces,57,24,Stimuli/Experimental_stims/objects/kuiye-chen-NuOGFo4PudE-unsplash.jpg,Stimuli/Experimental_stims/faces/abstral-official-cyOKLSgkgCE-unsplash.jpg,50,50,1500,NaN,NaN,NaN,0,NaN,NaN,NaN,NaN,NaN,NaN,NaN,NaN
123,100,J,original,0,2,4,faces,objects,33,55,Stimuli/Experimental_stims/faces/leilani-angel-K84vnnzxmTQ-unsplash.jpg,Stimuli/Experimental_stims/objects/jiangxulei1990-eIzzzwtkBjU-unsplash.jpg,50,50,1000,NaN,NaN,NaN,0,NaN,NaN,NaN,NaN,NaN,NaN,NaN,NaN