[{"view_history":"[{\"page_index\":0,\"viewing_time\":2097},{\"page_index\":1,\"viewing_time\":512.0999999996275},{\"page_index\":2,\"viewing_time\":223.8000000002794}]","rt":2833.1999999997206,"trial_type":"instructions","trial_index":0,"time_elapsed":2838,"internal_node_id":"0.0-0.0","subject":"15.8.2023, 17:32:36","condition":"conditionC"},{"rt":2864.5,"responses":"{\"Q0\":\"21\"}","trial_type":"survey-text","trial_index":1,"time_elapsed":5706,"internal_node_id":"0.0-1.0","subject":"15.8.2023, 17:32:36","condition":"conditionC"},{"view_history":"[{\"page_index\":0,\"viewing_time\":862.8000000002794},{\"page_index\":1,\"viewing_time\":192},{\"page_index\":2,\"viewing_time\":1163.8999999999069}]","rt":2218.9000000003725,"trial_type":"instructions","trial_index":2,"time_elapsed":7925,"internal_node_id":"0.0-2.0","subject":"15.8.2023, 17:32:36","condition":"conditionC"},{"init_locations":[{"src":"http://34.125.186.26/images/test_3.jpg","x":39,"y":100},{"src":"http://34.125.186.26/images/test_4.jpg","x":200,"y":100},{"src":"http://34.125.186.26/images/test_1.jpg","x":361,"y":100},{"src":"http://34.125.186.26/images/test_2.jpg","x":523,"y":100}],"moves":[],"final_locations":[{}],"stars_time":[8271.19999999972],"end_time":[9118.099999999627],"rt":846.8999999999069,"trial_type":"order","trial_index":3,"time_elapsed":8774,"internal_node_id":"0.0-3.0","subject":"15.8.2023, 17:32:36","condition":"conditionC"},{"view_history":"[{\"page_index\":0,\"viewing_time\":959.2000000001863}]","rt":959.4000000003725,"trial_type":"instructions","trial_index":4,"time_elapsed":9733,"internal_node_id":"0.0-4.0","subject":"15.8.2023, 17:32:36","condition":"conditionC"},{"init_locations":[{"src":"http://34.125.186.26/images/2_5.jpg","x":39,"y":100},{"src":"http://34.125.186.26/images/2_6.jpg","x":200,"y":100},{"src":"http://34.125.186.26/images/2_7.jpg","x":361,"y":100},{"src":"http://34.125.186.26/images/2_8.jpg","x":523,"y":100}],"moves":[],"final_locations":[{}],"stars_time":[10078.299999999814],"end_time":[11057.899999999907],"rt":979.6000000000931,"trial_type":"order","trial_index":5,"time_elapsed":10713,"internal_node_id":"0.0-5.0","subject":"15.8.2023, 17:32:36","condition":"conditionC"},{"rt":2007,"stimulus":"<p>How difficult was it to order the pictures?</p>","button_pressed":"3","trial_type":"html-button-response","trial_index":6,"time_elapsed":12722,"internal_node_id":"0.0-6.0","subject":"15.8.2023, 17:32:36","condition":"conditionC"},{"rt":1234,"responses":"{\"Q0\":\"\"}","trial_type":"survey-text","trial_index":7,"time_elapsed":13957,"internal_node_id":"0.0-7.0","subject":"15.8.2023, 17:32:36","condition":"conditionC"},{"init_locations":[{"src":"http://34.125.186.26/images/7_1.jpg","x":39,"y":100},{"src":"http://34.125.186.26/images/7_2.jpg","x":200,"y":100},{"src":"http://34.125.186.26/images/7_4.jpg","x":361,"y":100},{"src":"http://34.125.186.26/images/7_3.jpg","x":523,"y":100}],"moves":[{"src":"http://34.125.186.26/images/7_4.jpg","x":361,"y":338,"move_time":1941.1999999997206}],"final_locations":[{"final":{"src":"http://34.125.186.26/images/7_4.jpg","x":361,"y":338,"move_time":1941.1999999997206}}],"stars_time":[14302.5],"end_time":[17338],"rt":3035.5,"trial_type":"order","trial_index":8,"time_elapsed":16993,"internal_node_id":"0.0-8.0","subject":"15.8.2023, 17:32:36","condition":"conditionC"},{"rt":1007.2000000001863,"stimulus":"<p>How difficult was it to order the pictures?</p>","button_pressed":"3","trial_type":"html-button-response","trial_index":9,"time_elapsed":18001,"internal_node_id":"0.0-9.0","subject":"15.8.2023, 17:32:36","condition":"conditionC"},{"rt":703.0999999996275,"responses":"{\"Q0\":\"\"}","trial_type":"survey-text","trial_index":10,"time_elapsed":18705,"internal_node_id":"0.0-10.0","subject":"15.8.2023, 17:32:36","condition":"conditionC"}]