[{"view_history":"[{\"page_index\":0,\"viewing_time\":2180.2999999998137},{\"page_index\":1,\"viewing_time\":192},{\"page_index\":2,\"viewing_time\":223.5}]","rt":2596.2000000001863,"trial_type":"instructions","trial_index":0,"time_elapsed":2596,"internal_node_id":"0.0-0.0","subject":"18.8.2023, 15:06:59","condition":"conditionB"},{"rt":1180,"responses":"{\"Q0\":\"\"}","trial_type":"survey-text","trial_index":1,"time_elapsed":3781,"internal_node_id":"0.0-1.0","subject":"18.8.2023, 15:06:59","condition":"conditionB"},{"view_history":"[{\"page_index\":0,\"viewing_time\":4655.699999999255},{\"page_index\":1,\"viewing_time\":667.8000000007451},{\"page_index\":2,\"viewing_time\":1232.0999999996275}]","rt":6555.899999999441,"trial_type":"instructions","trial_index":2,"time_elapsed":10337,"internal_node_id":"0.0-2.0","subject":"18.8.2023, 15:06:59","condition":"conditionB"},{"tiles_id":"[\"test_3\",\"test_4\",\"test_1\",\"test_2\"]","moves":"[{\"src\":\"http://34.125.186.26/images/test_4.jpg\",\"x\":200,\"y\":338,\"move_time\":1078}]","final_locations":"[{\"src\":\"http://34.125.186.26/images/test_4.jpg\",\"x\":200,\"y\":338,\"move_time\":1078}]","move_time":"0","rt":"1794.7999999998137","trial_type":"order","trial_index":3,"time_elapsed":12134,"internal_node_id":"0.0-3.0","subject":"18.8.2023, 15:06:59","condition":"conditionB"},{"view_history":"[{\"page_index\":0,\"viewing_time\":989.7999999998137}]","rt":990,"trial_type":"instructions","trial_index":4,"time_elapsed":13125,"internal_node_id":"0.0-4.0","subject":"18.8.2023, 15:06:59","condition":"conditionB"},{"tiles_id":"[\"2_5\",\"2_6\",\"2_7\",\"2_8\"]","moves":"[{\"src\":\"http://34.125.186.26/images/2_6.jpg\",\"x\":361,\"y\":338,\"move_time\":917}]","final_locations":"[{\"src\":\"http://34.125.186.26/images/2_6.jpg\",\"x\":361,\"y\":338,\"move_time\":917}]","move_time":"0","rt":"2131.5","trial_type":"order","trial_index":5,"time_elapsed":15257,"internal_node_id":"0.0-5.0","subject":"18.8.2023, 15:06:59","condition":"conditionB"},{"rt":942.7000000001863,"stimulus":"<p>How difficult was it to order the pictures?</p>","button_pressed":"3","trial_type":"html-button-response","trial_index":6,"time_elapsed":16201,"internal_node_id":"0.0-6.0","subject":"18.8.2023, 15:06:59","condition":"conditionB"},{"rt":964.1000000005588,"responses":"{\"Q0\":\"\"}","trial_type":"survey-text","trial_index":7,"time_elapsed":17170,"internal_node_id":"0.0-7.0","subject":"18.8.2023, 15:06:59","condition":"conditionB"},{"tiles_id":"[\"7_1\",\"7_2\",\"7_4\",\"7_3\"]","moves":"[{\"src\":\"http://34.125.186.26/images/7_4.jpg\",\"x\":361,\"y\":338,\"move_time\":910}]","final_locations":"[{\"src\":\"http://34.125.186.26/images/7_4.jpg\",\"x\":361,\"y\":338,\"move_time\":910}]","move_time":"0","rt":"1529.5999999996275","trial_type":"order","trial_index":8,"time_elapsed":18701,"internal_node_id":"0.0-8.0","subject":"18.8.2023, 15:06:59","condition":"conditionB"},{"rt":1167.2000000001863,"stimulus":"<p>How difficult was it to order the pictures?</p>","button_pressed":"3","trial_type":"html-button-response","trial_index":9,"time_elapsed":19869,"internal_node_id":"0.0-9.0","subject":"18.8.2023, 15:06:59","condition":"conditionB"},{"rt":1218.8999999994412,"responses":"{\"Q0\":\"\"}","trial_type":"survey-text","trial_index":10,"time_elapsed":21089,"internal_node_id":"0.0-10.0","subject":"18.8.2023, 15:06:59","condition":"conditionB"},{"tiles_id":"[\"2_5\",\"2_6\",\"2_7\",\"2_8\"]","moves":"[{\"src\":\"http://34.125.186.26/images/2_7.jpg\",\"x\":361,\"y\":338,\"move_time\":789}]","final_locations":"[{\"src\":\"http://34.125.186.26/images/2_7.jpg\",\"x\":361,\"y\":338,\"move_time\":789}]","move_time":"0","rt":"1711.199999999255","trial_type":"order","trial_index":11,"time_elapsed":22801,"internal_node_id":"0.0-11.0","subject":"18.8.2023, 15:06:59","condition":"conditionB"},{"rt":1378.7000000001863,"stimulus":"<p>How difficult was it to order the pictures?</p>","button_pressed":"4","trial_type":"html-button-response","trial_index":12,"time_elapsed":24181,"internal_node_id":"0.0-12.0","subject":"18.8.2023, 15:06:59","condition":"conditionB"},{"rt":782.8999999994412,"responses":"{\"Q0\":\"\"}","trial_type":"survey-text","trial_index":13,"time_elapsed":24965,"internal_node_id":"0.0-13.0","subject":"18.8.2023, 15:06:59","condition":"conditionB"},{"tiles_id":"[\"2_5\",\"2_6\",\"2_7\",\"2_8\"]","moves":"[{\"src\":\"http://34.125.186.26/images/2_7.jpg\",\"x\":361,\"y\":338,\"move_time\":820}]","final_locations":"[{\"src\":\"http://34.125.186.26/images/2_7.jpg\",\"x\":361,\"y\":338,\"move_time\":820}]","move_time":"0","rt":"1455.2999999998137","trial_type":"order","trial_index":14,"time_elapsed":26421,"internal_node_id":"0.0-14.0","subject":"18.8.2023, 15:06:59","condition":"conditionB"},{"rt":947.0999999996275,"stimulus":"<p>How difficult was it to order the pictures?</p>","button_pressed":"4","trial_type":"html-button-response","trial_index":15,"time_elapsed":27369,"internal_node_id":"0.0-15.0","subject":"18.8.2023, 15:06:59","condition":"conditionB"},{"rt":702.6000000005588,"responses":"{\"Q0\":\"\"}","trial_type":"survey-text","trial_index":16,"time_elapsed":28073,"internal_node_id":"0.0-16.0","subject":"18.8.2023, 15:06:59","condition":"conditionB"},{"tiles_id":"[\"2_5\",\"2_6\",\"2_7\",\"2_8\"]","moves":"[{\"src\":\"http://34.125.186.26/images/2_7.jpg\",\"x\":361,\"y\":338,\"move_time\":893}]","final_locations":"[{\"src\":\"http://34.125.186.26/images/2_7.jpg\",\"x\":361,\"y\":338,\"move_time\":893}]","move_time":"0","rt":"1606.8999999994412","trial_type":"order","trial_index":17,"time_elapsed":29681,"internal_node_id":"0.0-17.0","subject":"18.8.2023, 15:06:59","condition":"conditionB"},{"rt":1634.8999999994412,"stimulus":"<p>How difficult was it to order the pictures?</p>","button_pressed":"2","trial_type":"html-button-response","trial_index":18,"time_elapsed":31317,"internal_node_id":"0.0-18.0","subject":"18.8.2023, 15:06:59","condition":"conditionB"},{"rt":910.9000000003725,"responses":"{\"Q0\":\"\"}","trial_type":"survey-text","trial_index":19,"time_elapsed":32229,"internal_node_id":"0.0-19.0","subject":"18.8.2023, 15:06:59","condition":"conditionB"},{"tiles_id":"[\"2_5\",\"2_6\",\"2_7\",\"2_8\"]","moves":"[{\"src\":\"http://34.125.186.26/images/2_7.jpg\",\"x\":361,\"y\":338,\"move_time\":937}]","final_locations":"[{\"src\":\"http://34.125.186.26/images/2_7.jpg\",\"x\":361,\"y\":338,\"move_time\":937}]","move_time":"0","rt":"2067.300000000745","trial_type":"order","trial_index":20,"time_elapsed":34297,"internal_node_id":"0.0-20.0","subject":"18.8.2023, 15:06:59","condition":"conditionB"},{"rt":959.5999999996275,"stimulus":"<p>How difficult was it to order the pictures?</p>","button_pressed":"3","trial_type":"html-button-response","trial_index":21,"time_elapsed":35257,"internal_node_id":"0.0-21.0","subject":"18.8.2023, 15:06:59","condition":"conditionB"},{"rt":754.7000000001863,"responses":"{\"Q0\":\"\"}","trial_type":"survey-text","trial_index":22,"time_elapsed":36013,"internal_node_id":"0.0-22.0","subject":"18.8.2023, 15:06:59","condition":"conditionB"},{"tiles_id":"[\"2_5\",\"2_6\",\"2_7\",\"2_8\"]","moves":"[{\"src\":\"http://34.125.186.26/images/2_7.jpg\",\"x\":361,\"y\":338,\"move_time\":885}]","final_locations":"[{\"src\":\"http://34.125.186.26/images/2_7.jpg\",\"x\":361,\"y\":338,\"move_time\":885}]","move_time":"0","rt":"1743.2000000001863","trial_type":"order","trial_index":23,"time_elapsed":37757,"internal_node_id":"0.0-23.0","subject":"18.8.2023, 15:06:59","condition":"conditionB"},{"rt":1108.3999999994412,"stimulus":"<p>How difficult was it to order the pictures?</p>","button_pressed":"4","trial_type":"html-button-response","trial_index":24,"time_elapsed":38866,"internal_node_id":"0.0-24.0","subject":"18.8.2023, 15:06:59","condition":"conditionB"},{"rt":749.5999999996275,"responses":"{\"Q0\":\"\"}","trial_type":"survey-text","trial_index":25,"time_elapsed":39617,"internal_node_id":"0.0-25.0","subject":"18.8.2023, 15:06:59","condition":"conditionB"},{"tiles_id":"[\"2_5\",\"2_6\",\"2_7\",\"2_8\"]","moves":"[{\"src\":\"http://34.125.186.26/images/2_7.jpg\",\"x\":361,\"y\":338,\"move_time\":868}]","final_locations":"[{\"src\":\"http://34.125.186.26/images/2_7.jpg\",\"x\":361,\"y\":338,\"move_time\":868}]","move_time":"0","rt":"2031.1000000005588","trial_type":"order","trial_index":26,"time_elapsed":41648,"internal_node_id":"0.0-26.0","subject":"18.8.2023, 15:06:59","condition":"conditionB"},{"rt":1011.8999999994412,"stimulus":"<p>How difficult was it to order the pictures?</p>","button_pressed":"2","trial_type":"html-button-response","trial_index":27,"time_elapsed":42661,"internal_node_id":"0.0-27.0","subject":"18.8.2023, 15:06:59","condition":"conditionB"},{"rt":766.5,"responses":"{\"Q0\":\"\"}","trial_type":"survey-text","trial_index":28,"time_elapsed":43429,"internal_node_id":"0.0-28.0","subject":"18.8.2023, 15:06:59","condition":"conditionB"}]