[{"view_history":"[{\"page_index\":0,\"viewing_time\":1444.7000000001863},{\"page_index\":1,\"viewing_time\":511.3999999994412},{\"page_index\":2,\"viewing_time\":488.30000000074506}]","rt":2445,"trial_type":"instructions","trial_index":0,"time_elapsed":2447,"internal_node_id":"0.0-0.0","subject":"15.8.2023, 18:16:23","condition":"conditionC"},{"rt":3529.5,"responses":"{\"Q0\":\"21\"}","trial_type":"survey-text","trial_index":1,"time_elapsed":5982,"internal_node_id":"0.0-1.0","subject":"15.8.2023, 18:16:23","condition":"conditionC"},{"view_history":"[{\"page_index\":0,\"viewing_time\":1571.3999999994412},{\"page_index\":1,\"viewing_time\":696.2000000001863},{\"page_index\":2,\"viewing_time\":2515.9000000003725}]","rt":4783.799999999814,"trial_type":"instructions","trial_index":2,"time_elapsed":10767,"internal_node_id":"0.0-2.0","subject":"15.8.2023, 18:16:23","condition":"conditionC"},{"init_locations":[{"src":"http://34.125.186.26/images/test_3.jpg","x":316,"y":100},{"src":"http://34.125.186.26/images/test_4.jpg","x":477,"y":100},{"src":"http://34.125.186.26/images/test_1.jpg","x":639,"y":100},{"src":"http://34.125.186.26/images/test_2.jpg","x":800,"y":100}],"moves":[{"src":"http://34.125.186.26/images/test_3.jpg","x":316,"y":338,"move_time":1699.1000000005588},{"src":"http://34.125.186.26/images/test_3.jpg","x":639,"y":338,"move_time":12561.399999999441},{"src":"http://34.125.186.26/images/test_1.jpg","x":316,"y":338,"move_time":1267.2000000001863},{"src":"http://34.125.186.26/images/test_2.jpg","x":477,"y":338,"move_time":1427.0999999996275},{"src":"http://34.125.186.26/images/test_4.jpg","x":800,"y":338,"move_time":1405.7000000001863}],"final_locations":[{"final":{"src":"http://34.125.186.26/images/test_4.jpg","x":800,"y":338,"move_time":1405.7000000001863}}],"stars_time":[11039.899999999441],"end_time":[30227.299999999814],"rt":19187.400000000373,"trial_type":"order","trial_index":3,"time_elapsed":29955,"internal_node_id":"0.0-3.0","subject":"15.8.2023, 18:16:23","condition":"conditionC"},{"view_history":"[{\"page_index\":0,\"viewing_time\":1723.1000000005588}]","rt":1723.6000000005588,"trial_type":"instructions","trial_index":4,"time_elapsed":31679,"internal_node_id":"0.0-4.0","subject":"15.8.2023, 18:16:23","condition":"conditionC"},{"init_locations":[{"src":"http://34.125.186.26/images/2_5.jpg","x":316,"y":100},{"src":"http://34.125.186.26/images/2_6.jpg","x":477,"y":100},{"src":"http://34.125.186.26/images/2_7.jpg","x":639,"y":100},{"src":"http://34.125.186.26/images/2_8.jpg","x":800,"y":100}],"moves":[{"src":"http://34.125.186.26/images/2_5.jpg","x":316,"y":338,"move_time":2593.7000000001863},{"src":"http://34.125.186.26/images/2_6.jpg","x":477,"y":338,"move_time":1150.1000000005588},{"src":"http://34.125.186.26/images/2_7.jpg","x":639,"y":338,"move_time":1057.0999999996275},{"src":"http://34.125.186.26/images/2_8.jpg","x":800,"y":338,"move_time":1302.5999999996275}],"final_locations":[{"final":{"src":"http://34.125.186.26/images/2_8.jpg","x":800,"y":338,"move_time":1302.5999999996275}}],"stars_time":[31952.199999999255],"end_time":[39534.799999999814],"rt":7582.600000000559,"trial_type":"order","trial_index":5,"time_elapsed":39262,"internal_node_id":"0.0-5.0","subject":"15.8.2023, 18:16:23","condition":"conditionC"},{"rt":2499.899999999441,"stimulus":"<p>How difficult was it to order the pictures?</p>","button_pressed":"3","trial_type":"html-button-response","trial_index":6,"time_elapsed":41763,"internal_node_id":"0.0-6.0","subject":"15.8.2023, 18:16:23","condition":"conditionC"},{"rt":8058.9000000003725,"responses":"{\"Q0\":\"random...\"}","trial_type":"survey-text","trial_index":7,"time_elapsed":49827,"internal_node_id":"0.0-7.0","subject":"15.8.2023, 18:16:23","condition":"conditionC"},{"init_locations":[{"src":"http://34.125.186.26/images/7_1.jpg","x":316,"y":100},{"src":"http://34.125.186.26/images/7_2.jpg","x":477,"y":100},{"src":"http://34.125.186.26/images/7_4.jpg","x":639,"y":100},{"src":"http://34.125.186.26/images/7_3.jpg","x":800,"y":100}],"moves":[{"src":"http://34.125.186.26/images/7_1.jpg","x":316,"y":338,"move_time":7635.799999999814},{"src":"http://34.125.186.26/images/7_2.jpg","x":477,"y":338,"move_time":1170.1000000005588},{"src":"http://34.125.186.26/images/7_3.jpg","x":639,"y":338,"move_time":1821.3999999994412},{"src":"http://34.125.186.26/images/7_4.jpg","x":800,"y":338,"move_time":1086.800000000745}],"final_locations":[{"final":{"src":"http://34.125.186.26/images/7_4.jpg","x":800,"y":338,"move_time":1086.800000000745}}],"stars_time":[50099.89999999944],"end_time":[63723.199999999255],"rt":13623.299999999814,"trial_type":"order","trial_index":8,"time_elapsed":63451,"internal_node_id":"0.0-8.0","subject":"15.8.2023, 18:16:23","condition":"conditionC"},{"rt":2762.2999999998137,"stimulus":"<p>How difficult was it to order the pictures?</p>","button_pressed":"1","trial_type":"html-button-response","trial_index":9,"time_elapsed":66215,"internal_node_id":"0.0-9.0","subject":"15.8.2023, 18:16:23","condition":"conditionC"},{"rt":10750.900000000373,"responses":"{\"Q0\":\"the story...\"}","trial_type":"survey-text","trial_index":10,"time_elapsed":76967,"internal_node_id":"0.0-10.0","subject":"15.8.2023, 18:16:23","condition":"conditionC"}]