"view_history","rt","trial_type","trial_index","time_elapsed","internal_node_id","subject","condition","responses","tiles_id","moves","final_locations","move_time","stimulus","button_pressed"
"[{""page_index"":0,""viewing_time"":1559.2999999998137},{""page_index"":1,""viewing_time"":240.1000000005588},{""page_index"":2,""viewing_time"":239.8999999994412}]","2039.7000000001863","instructions","0","2042","0.0-0.0","18.8.2023, 15:12:04","conditionA","","","","","","",""
"","1804.300000000745","survey-text","1","3850","0.0-1.0","18.8.2023, 15:12:04","conditionA","{""Q0"":""21""}","","","","","",""
"[{""page_index"":0,""viewing_time"":707.2000000001863},{""page_index"":1,""viewing_time"":544.2000000001863},{""page_index"":2,""viewing_time"":1040}]","2291.7999999998137","instructions","2","6142","0.0-2.0","18.8.2023, 15:12:04","conditionA","","","","","","",""
"","2154.2999999998137","order","3","8297","0.0-3.0","18.8.2023, 15:12:04","conditionA","","[""test_3"",""test_4"",""test_1"",""test_2""]","[]","[]","0","",""
"[{""page_index"":0,""viewing_time"":1375.5}]","1375.7000000001863","instructions","4","9673","0.0-4.0","18.8.2023, 15:12:04","conditionA","","","","","","",""
"","1899.7000000001863","order","5","11573","0.0-5.0","18.8.2023, 15:12:04","conditionA","","[""2_5"",""2_6"",""2_7"",""2_8""]","[{""src"":""http://34.125.186.26/images/2_6.jpg"",""x"":477,""y"":338,""move_time"":1246}]","[{""src"":""http://34.125.186.26/images/2_6.jpg"",""x"":477,""y"":338,""move_time"":1246}]","0","",""
"","1279.1000000005588","html-button-response","6","12854","0.0-6.0","18.8.2023, 15:12:04","conditionA","","","","","","<p>How difficult was it to order the pictures?</p>","3"
"","1025.5999999996275","survey-text","7","13882","0.0-7.0","18.8.2023, 15:12:04","conditionA","{""Q0"":""""}","","","","","",""
"","1503","order","8","15385","0.0-8.0","18.8.2023, 15:12:04","conditionA","","[""7_1"",""7_2"",""7_4"",""7_3""]","[{""src"":""http://34.125.186.26/images/7_4.jpg"",""x"":639,""y"":338,""move_time"":867}]","[{""src"":""http://34.125.186.26/images/7_4.jpg"",""x"":639,""y"":338,""move_time"":867}]","0","",""
"","1011.4000000003725","html-button-response","9","16398","0.0-9.0","18.8.2023, 15:12:04","conditionA","","","","","","<p>How difficult was it to order the pictures?</p>","3"
"","942.5","survey-text","10","17342","0.0-10.0","18.8.2023, 15:12:04","conditionA","{""Q0"":""""}","","","","","",""
"","1938.7999999998137","order","11","19281","0.0-11.0","18.8.2023, 15:12:04","conditionA","","[""2_5"",""2_6"",""2_7"",""2_8""]","[{""src"":""http://34.125.186.26/images/2_7.jpg"",""x"":639,""y"":338,""move_time"":947}]","[{""src"":""http://34.125.186.26/images/2_7.jpg"",""x"":639,""y"":338,""move_time"":947}]","0","",""
"","991.1000000005588","html-button-response","12","20273","0.0-12.0","18.8.2023, 15:12:04","conditionA","","","","","","<p>How difficult was it to order the pictures?</p>","3"
"","1390.6000000005588","survey-text","13","21665","0.0-13.0","18.8.2023, 15:12:04","conditionA","{""Q0"":""""}","","","","","",""
"","1811.5","order","14","23477","0.0-14.0","18.8.2023, 15:12:04","conditionA","","[""2_5"",""2_6"",""2_7"",""2_8""]","[{""src"":""http://34.125.186.26/images/2_6.jpg"",""x"":477,""y"":338,""move_time"":777}]","[{""src"":""http://34.125.186.26/images/2_6.jpg"",""x"":477,""y"":338,""move_time"":777}]","0","",""
"","911.7000000001863","html-button-response","15","24390","0.0-15.0","18.8.2023, 15:12:04","conditionA","","","","","","<p>How difficult was it to order the pictures?</p>","4"
"","1074.5999999996275","survey-text","16","25466","0.0-16.0","18.8.2023, 15:12:04","conditionA","{""Q0"":""""}","","","","","",""
"","1630.6000000005588","order","17","27097","0.0-17.0","18.8.2023, 15:12:04","conditionA","","[""2_5"",""2_6"",""2_7"",""2_8""]","[{""src"":""http://34.125.186.26/images/2_7.jpg"",""x"":639,""y"":338,""move_time"":726}]","[{""src"":""http://34.125.186.26/images/2_7.jpg"",""x"":639,""y"":338,""move_time"":726}]","0","",""
"","1075.4000000003725","html-button-response","18","28173","0.0-18.0","18.8.2023, 15:12:04","conditionA","","","","","","<p>How difficult was it to order the pictures?</p>","3"
"","687.1000000005588","survey-text","19","28862","0.0-19.0","18.8.2023, 15:12:04","conditionA","{""Q0"":""""}","","","","","",""
"","1615.199999999255","order","20","30477","0.0-20.0","18.8.2023, 15:12:04","conditionA","","[""2_5"",""2_6"",""2_7"",""2_8""]","[{""src"":""http://34.125.186.26/images/2_7.jpg"",""x"":639,""y"":338,""move_time"":916}]","[{""src"":""http://34.125.186.26/images/2_7.jpg"",""x"":639,""y"":338,""move_time"":916}]","0","",""
"","1010.7000000001863","html-button-response","21","31489","0.0-21.0","18.8.2023, 15:12:04","conditionA","","","","","","<p>How difficult was it to order the pictures?</p>","4"
"","1231.6000000005588","survey-text","22","32722","0.0-22.0","18.8.2023, 15:12:04","conditionA","{""Q0"":""""}","","","","","",""
"","2058.5999999996275","order","23","34781","0.0-23.0","18.8.2023, 15:12:04","conditionA","","[""2_5"",""2_6"",""2_7"",""2_8""]","[{""src"":""http://34.125.186.26/images/2_7.jpg"",""x"":639,""y"":338,""move_time"":1019}]","[{""src"":""http://34.125.186.26/images/2_7.jpg"",""x"":639,""y"":338,""move_time"":1019}]","0","",""
"","895.2999999998137","html-button-response","24","35677","0.0-24.0","18.8.2023, 15:12:04","conditionA","","","","","","<p>How difficult was it to order the pictures?</p>","2"
"","662.9000000003725","survey-text","25","36341","0.0-25.0","18.8.2023, 15:12:04","conditionA","{""Q0"":""""}","","","","","",""
"","2195.399999999441","order","26","38537","0.0-26.0","18.8.2023, 15:12:04","conditionA","","[""2_5"",""2_6"",""2_7"",""2_8""]","[{""src"":""http://34.125.186.26/images/2_6.jpg"",""x"":477,""y"":338,""move_time"":1129}]","[{""src"":""http://34.125.186.26/images/2_6.jpg"",""x"":477,""y"":338,""move_time"":1129}]","0","",""
"","927.5","html-button-response","27","39466","0.0-27.0","18.8.2023, 15:12:04","conditionA","","","","","","<p>How difficult was it to order the pictures?</p>","3"
"","850.5999999996275","survey-text","28","40317","0.0-28.0","18.8.2023, 15:12:04","conditionA","{""Q0"":""""}","","","","","",""
