[{"view_history":"[{\"page_index\":0,\"viewing_time\":1357.7999999523163},{\"page_index\":1,\"viewing_time\":1155.9000000357628},{\"page_index\":2,\"viewing_time\":687.8999999761581}]","rt":3202.199999988079,"trial_type":"instructions","trial_index":0,"time_elapsed":3204,"internal_node_id":"0.0-0.0","subject":"8.7.2023, 0:56:42","condition":"conditionB"},{"rt":1477.8999999761581,"responses":"{\"Q0\":\"\"}","trial_type":"survey-text","trial_index":1,"time_elapsed":4683,"internal_node_id":"0.0-1.0","subject":"8.7.2023, 0:56:42","condition":"conditionB"},{"view_history":"[{\"page_index\":0,\"viewing_time\":666.8999999761581},{\"page_index\":1,\"viewing_time\":496.30000001192093},{\"page_index\":2,\"viewing_time\":816}]","rt":1979.3999999761581,"trial_type":"instructions","trial_index":2,"time_elapsed":6664,"internal_node_id":"0.0-2.0","subject":"8.7.2023, 0:56:42","condition":"conditionB"},{"init_locations":[{"src":"http://34.125.186.26/images/test_3.jpg","x":12,"y":76},{"src":"http://34.125.186.26/images/test_4.jpg","x":174,"y":76},{"src":"http://34.125.186.26/images/test_1.jpg","x":335,"y":76},{"src":"http://34.125.186.26/images/test_2.jpg","x":496,"y":76}],"moves":[],"final_locations":[{}],"stars_time":[6935],"end_time":[8625.199999988079],"rt":1690.199999988079,"trial_type":"order","trial_index":3,"time_elapsed":8355,"internal_node_id":"0.0-3.0","subject":"8.7.2023, 0:56:42","condition":"conditionB"},{"view_history":"[{\"page_index\":0,\"viewing_time\":765.6999999880791}]","rt":765.7999999523163,"trial_type":"instructions","trial_index":4,"time_elapsed":9124,"internal_node_id":"0.0-4.0","subject":"8.7.2023, 0:56:42","condition":"conditionB"},{"init_locations":[{"src":"http://34.125.186.26/images/2_5.jpg","x":12,"y":76},{"src":"http://34.125.186.26/images/2_6.jpg","x":174,"y":76},{"src":"http://34.125.186.26/images/2_7.jpg","x":335,"y":76},{"src":"http://34.125.186.26/images/2_8.jpg","x":496,"y":76}],"moves":[],"final_locations":[{}],"stars_time":[9395.199999988079],"end_time":[10673.599999964237],"rt":1278.3999999761581,"trial_type":"order","trial_index":5,"time_elapsed":10404,"internal_node_id":"0.0-5.0","subject":"8.7.2023, 0:56:42","condition":"conditionB"},{"rt":806.8000000119209,"stimulus":"<p>How difficult was it to order the pictures?</p>","button_pressed":"4","trial_type":"html-button-response","trial_index":6,"time_elapsed":11212,"internal_node_id":"0.0-6.0","subject":"8.7.2023, 0:56:42","condition":"conditionB"},{"rt":777.8000000119209,"responses":"{\"Q0\":\"\"}","trial_type":"survey-text","trial_index":7,"time_elapsed":11991,"internal_node_id":"0.0-7.0","subject":"8.7.2023, 0:56:42","condition":"conditionB"},{"init_locations":[{"src":"http://34.125.186.26/images/7_1.jpg","x":12,"y":76},{"src":"http://34.125.186.26/images/7_2.jpg","x":174,"y":76},{"src":"http://34.125.186.26/images/7_4.jpg","x":335,"y":76},{"src":"http://34.125.186.26/images/7_3.jpg","x":496,"y":76}],"moves":[{"src":"http://34.125.186.26/images/7_2.jpg","x":174,"y":258,"move_time":1365.699999988079}],"final_locations":[{"final":{"src":"http://34.125.186.26/images/7_2.jpg","x":174,"y":258,"move_time":1365.699999988079}}],"stars_time":[12262.099999964237],"end_time":[14771.299999952316],"rt":2509.199999988079,"trial_type":"order","trial_index":8,"time_elapsed":14501,"internal_node_id":"0.0-8.0","subject":"8.7.2023, 0:56:42","condition":"conditionB"}]