"success","trial_type","trial_index","time_elapsed","internal_node_id","subject","condition","view_history","rt","initial_locations","moves","final_locations_3","number_of_moves","stimulus","button_pressed","responses"
"true","fullscreen","0","3190","0.0-0.0","8/24/2023, 2:45:40 PM","conditionS","","","","","","","","",""
"","instructions","1","56390","0.0-1.0","8/24/2023, 2:45:40 PM","conditionS","[{""page_index"":0,""viewing_time"":1680.2999999998137},{""page_index"":1,""viewing_time"":6301.299999999814},{""page_index"":2,""viewing_time"":43460},{""page_index"":3,""viewing_time"":1753.5}]","53197.5","","","","","","",""
"","order","2","99904","0.0-2.0","8/24/2023, 2:45:40 PM","conditionS","","43506","[""test_3"",""test_4"",""test_2"",""test_1""]","[{""src"":""http://34.125.186.26/images/test_4.jpg"",""x"":297,""y"":385,""move_time"":21776},{""src"":""http://34.125.186.26/images/test_1.jpg"",""x"":297,""y"":385,""move_time"":7987},{""src"":""http://34.125.186.26/images/test_1.jpg"",""x"":459,""y"":385,""move_time"":2758},{""src"":""http://34.125.186.26/images/test_4.jpg"",""x"":297,""y"":385,""move_time"":4830},{""src"":""http://34.125.186.26/images/test_2.jpg"",""x"":621,""y"":385,""move_time"":2213},{""src"":""http://34.125.186.26/images/test_3.jpg"",""x"":782,""y"":385,""move_time"":2499}]","[{""src"":""http://34.125.186.26/images/test_4.jpg"",""x"":297,""y"":385},{""src"":""http://34.125.186.26/images/test_1.jpg"",""x"":459,""y"":385},{""src"":""http://34.125.186.26/images/test_2.jpg"",""x"":621,""y"":385},{""src"":""http://34.125.186.26/images/test_3.jpg"",""x"":782,""y"":385}]","6","","",""
"","instructions","3","103087","0.0-3.0","8/24/2023, 2:45:40 PM","conditionS","[{""page_index"":0,""viewing_time"":3180.0999999996275}]","3180.899999999441","","","","","","",""
"","order","4","121178","0.0-4.0","8/24/2023, 2:45:40 PM","conditionS","","18084","[""7_3"",""7_1"",""7_4"",""7_2""]","[{""src"":""http://34.125.186.26/images/7_1.jpg"",""x"":297,""y"":385,""move_time"":7087},{""src"":""http://34.125.186.26/images/7_2.jpg"",""x"":459,""y"":385,""move_time"":4396},{""src"":""http://34.125.186.26/images/7_3.jpg"",""x"":621,""y"":385,""move_time"":3961},{""src"":""http://34.125.186.26/images/7_4.jpg"",""x"":782,""y"":385,""move_time"":1560}]","[{""src"":""http://34.125.186.26/images/7_1.jpg"",""x"":297,""y"":385},{""src"":""http://34.125.186.26/images/7_2.jpg"",""x"":459,""y"":385},{""src"":""http://34.125.186.26/images/7_3.jpg"",""x"":621,""y"":385},{""src"":""http://34.125.186.26/images/7_4.jpg"",""x"":782,""y"":385}]","4","","",""
"","html-button-response","5","124462","0.0-5.0","8/24/2023, 2:45:40 PM","conditionS","","3277.100000000559","","","","","<p>How difficult was it to order the pictures?</p>","1",""
"","survey-text","6","141094","0.0-6.0","8/24/2023, 2:45:40 PM","conditionS","","16609.200000000186","","","","","","","{""Q0"":""its how i saw it happen in order if i was in the same situation ""}"
"","order","7","159012","0.0-7.0","8/24/2023, 2:45:40 PM","conditionS","","17912","[""2_5"",""2_6"",""2_7"",""2_8""]","[{""src"":""http://34.125.186.26/images/2_5.jpg"",""x"":297,""y"":385,""move_time"":11976},{""src"":""http://34.125.186.26/images/2_6.jpg"",""x"":459,""y"":385,""move_time"":1883},{""src"":""http://34.125.186.26/images/2_8.jpg"",""x"":621,""y"":385,""move_time"":1522},{""src"":""http://34.125.186.26/images/2_7.jpg"",""x"":782,""y"":385,""move_time"":1421}]","[{""src"":""http://34.125.186.26/images/2_5.jpg"",""x"":297,""y"":385},{""src"":""http://34.125.186.26/images/2_6.jpg"",""x"":459,""y"":385},{""src"":""http://34.125.186.26/images/2_8.jpg"",""x"":621,""y"":385},{""src"":""http://34.125.186.26/images/2_7.jpg"",""x"":782,""y"":385}]","4","","",""
"","html-button-response","8","160611","0.0-8.0","8/24/2023, 2:45:40 PM","conditionS","","1594","","","","","<p>How difficult was it to order the pictures?</p>","3",""
"","survey-text","9","167283","0.0-9.0","8/24/2023, 2:45:40 PM","conditionS","","6666.299999999814","","","","","","","{""Q0"":""wasnt too sure on this one""}"
"","order","10","186643","0.0-10.0","8/24/2023, 2:45:40 PM","conditionS","","19356","[""3_2"",""3_1"",""3_4"",""3_3""]","[{""src"":""http://34.125.186.26/images/3_2.jpg"",""x"":297,""y"":385,""move_time"":6277},{""src"":""http://34.125.186.26/images/3_3.jpg"",""x"":621,""y"":385,""move_time"":7017},{""src"":""http://34.125.186.26/images/3_2.jpg"",""x"":459,""y"":385,""move_time"":1619},{""src"":""http://34.125.186.26/images/3_1.jpg"",""x"":297,""y"":385,""move_time"":1884},{""src"":""http://34.125.186.26/images/3_4.jpg"",""x"":782,""y"":385,""move_time"":1493}]","[{""src"":""http://34.125.186.26/images/3_1.jpg"",""x"":297,""y"":385},{""src"":""http://34.125.186.26/images/3_2.jpg"",""x"":459,""y"":385},{""src"":""http://34.125.186.26/images/3_3.jpg"",""x"":621,""y"":385},{""src"":""http://34.125.186.26/images/3_4.jpg"",""x"":782,""y"":385}]","5","","",""
"","html-button-response","11","188005","0.0-11.0","8/24/2023, 2:45:40 PM","conditionS","","1357.6000000005588","","","","","<p>How difficult was it to order the pictures?</p>","2",""
"","survey-text","12","197037","0.0-12.0","8/24/2023, 2:45:40 PM","conditionS","","9025.700000000186","","","","","","","{""Q0"":""it is how i saw it would happen in my head""}"
"","order","13","217225","0.0-13.0","8/24/2023, 2:45:40 PM","conditionS","","20184","[""5_5"",""5_6"",""5_7"",""5_8""]","[{""src"":""http://34.125.186.26/images/5_8.jpg"",""x"":297,""y"":385,""move_time"":10694},{""src"":""http://34.125.186.26/images/5_5.jpg"",""x"":459,""y"":385,""move_time"":2226},{""src"":""http://34.125.186.26/images/5_7.jpg"",""x"":621,""y"":385,""move_time"":1433},{""src"":""http://34.125.186.26/images/5_6.jpg"",""x"":621,""y"":385,""move_time"":1776},{""src"":""http://34.125.186.26/images/5_7.jpg"",""x"":782,""y"":385,""move_time"":2905}]","[{""src"":""http://34.125.186.26/images/5_8.jpg"",""x"":297,""y"":385},{""src"":""http://34.125.186.26/images/5_5.jpg"",""x"":459,""y"":385},{""src"":""http://34.125.186.26/images/5_6.jpg"",""x"":621,""y"":385},{""src"":""http://34.125.186.26/images/5_7.jpg"",""x"":782,""y"":385}]","5","","",""
"","html-button-response","14","218706","0.0-14.0","8/24/2023, 2:45:40 PM","conditionS","","1477.4000000003725","","","","","<p>How difficult was it to order the pictures?</p>","3",""
"","survey-text","15","225541","0.0-15.0","8/24/2023, 2:45:40 PM","conditionS","","6827.700000000186","","","","","","","{""Q0"":""was not too sure about this one""}"
"","order","16","235986","0.0-16.0","8/24/2023, 2:45:40 PM","conditionS","","10441","[""9_1"",""9_2"",""9_3"",""9_4""]","[{""src"":""http://34.125.186.26/images/9_2.jpg"",""x"":297,""y"":385,""move_time"":3867},{""src"":""http://34.125.186.26/images/9_1.jpg"",""x"":459,""y"":385,""move_time"":2042},{""src"":""http://34.125.186.26/images/9_3.jpg"",""x"":621,""y"":385,""move_time"":1639},{""src"":""http://34.125.186.26/images/9_4.jpg"",""x"":782,""y"":385,""move_time"":1786}]","[{""src"":""http://34.125.186.26/images/9_2.jpg"",""x"":297,""y"":385},{""src"":""http://34.125.186.26/images/9_1.jpg"",""x"":459,""y"":385},{""src"":""http://34.125.186.26/images/9_3.jpg"",""x"":621,""y"":385},{""src"":""http://34.125.186.26/images/9_4.jpg"",""x"":782,""y"":385}]","4","","",""
"","html-button-response","17","237402","0.0-17.0","8/24/2023, 2:45:40 PM","conditionS","","1411.8999999994412","","","","","<p>How difficult was it to order the pictures?</p>","3",""
"","survey-text","18","244553","0.0-18.0","8/24/2023, 2:45:40 PM","conditionS","","7145","","","","","","","{""Q0"":""from the shapes and angles""}"
"","order","19","260750","0.0-19.0","8/24/2023, 2:45:40 PM","conditionS","","16193","[""1_4"",""1_2"",""1_1"",""1_3""]","[{""src"":""http://34.125.186.26/images/1_1.jpg"",""x"":297,""y"":385,""move_time"":10149},{""src"":""http://34.125.186.26/images/1_2.jpg"",""x"":459,""y"":385,""move_time"":1796},{""src"":""http://34.125.186.26/images/1_4.jpg"",""x"":621,""y"":385,""move_time"":1579},{""src"":""http://34.125.186.26/images/1_3.jpg"",""x"":782,""y"":385,""move_time"":1650}]","[{""src"":""http://34.125.186.26/images/1_1.jpg"",""x"":297,""y"":385},{""src"":""http://34.125.186.26/images/1_2.jpg"",""x"":459,""y"":385},{""src"":""http://34.125.186.26/images/1_4.jpg"",""x"":621,""y"":385},{""src"":""http://34.125.186.26/images/1_3.jpg"",""x"":782,""y"":385}]","4","","",""
"","html-button-response","20","262549","0.0-20.0","8/24/2023, 2:45:40 PM","conditionS","","1794.9000000003725","","","","","<p>How difficult was it to order the pictures?</p>","1",""
"","survey-text","21","271902","0.0-21.0","8/24/2023, 2:45:40 PM","conditionS","","9344.099999999627","","","","","","","{""Q0"":""seemed to be the only option that was correct""}"
"","order","22","283928","0.0-22.0","8/24/2023, 2:45:40 PM","conditionS","","12023","[""8_2"",""8_4"",""8_1"",""8_3""]","[{""src"":""http://34.125.186.26/images/8_1.jpg"",""x"":297,""y"":385,""move_time"":4850},{""src"":""http://34.125.186.26/images/8_2.jpg"",""x"":459,""y"":385,""move_time"":2013},{""src"":""http://34.125.186.26/images/8_3.jpg"",""x"":621,""y"":385,""move_time"":1852},{""src"":""http://34.125.186.26/images/8_4.jpg"",""x"":782,""y"":385,""move_time"":2172}]","[{""src"":""http://34.125.186.26/images/8_1.jpg"",""x"":297,""y"":385},{""src"":""http://34.125.186.26/images/8_2.jpg"",""x"":459,""y"":385},{""src"":""http://34.125.186.26/images/8_3.jpg"",""x"":621,""y"":385},{""src"":""http://34.125.186.26/images/8_4.jpg"",""x"":782,""y"":385}]","4","","",""
"","html-button-response","23","285390","0.0-23.0","8/24/2023, 2:45:40 PM","conditionS","","1459.199999999255","","","","","<p>How difficult was it to order the pictures?</p>","1",""
"","survey-text","24","293853","0.0-24.0","8/24/2023, 2:45:40 PM","conditionS","","8458.600000000559","","","","","","","{""Q0"":""thats how plants are grown in that order""}"
"","order","25","303265","0.0-25.0","8/24/2023, 2:45:40 PM","conditionS","","9409","[""6_5"",""6_6"",""6_7"",""6_8""]","[{""src"":""http://34.125.186.26/images/6_6.jpg"",""x"":297,""y"":385,""move_time"":3403},{""src"":""http://34.125.186.26/images/6_5.jpg"",""x"":459,""y"":385,""move_time"":1923},{""src"":""http://34.125.186.26/images/6_7.jpg"",""x"":621,""y"":385,""move_time"":1443},{""src"":""http://34.125.186.26/images/6_8.jpg"",""x"":782,""y"":385,""move_time"":1501}]","[{""src"":""http://34.125.186.26/images/6_6.jpg"",""x"":297,""y"":385},{""src"":""http://34.125.186.26/images/6_5.jpg"",""x"":459,""y"":385},{""src"":""http://34.125.186.26/images/6_7.jpg"",""x"":621,""y"":385},{""src"":""http://34.125.186.26/images/6_8.jpg"",""x"":782,""y"":385}]","4","","",""
"","html-button-response","26","304391","0.0-26.0","8/24/2023, 2:45:40 PM","conditionS","","1122.2000000001863","","","","","<p>How difficult was it to order the pictures?</p>","4",""
"","survey-text","27","308725","0.0-27.0","8/24/2023, 2:45:40 PM","conditionS","","4325.300000000745","","","","","","","{""Q0"":""has to guess on this one""}"
"","order","28","322158","0.0-28.0","8/24/2023, 2:45:40 PM","conditionS","","13428","[""4_5"",""4_6"",""4_7"",""4_8""]","[{""src"":""http://34.125.186.26/images/4_6.jpg"",""x"":297,""y"":385,""move_time"":5958},{""src"":""http://34.125.186.26/images/4_7.jpg"",""x"":459,""y"":385,""move_time"":2425},{""src"":""http://34.125.186.26/images/4_8.jpg"",""x"":621,""y"":385,""move_time"":1765},{""src"":""http://34.125.186.26/images/4_5.jpg"",""x"":782,""y"":385,""move_time"":2218}]","[{""src"":""http://34.125.186.26/images/4_6.jpg"",""x"":297,""y"":385},{""src"":""http://34.125.186.26/images/4_7.jpg"",""x"":459,""y"":385},{""src"":""http://34.125.186.26/images/4_8.jpg"",""x"":621,""y"":385},{""src"":""http://34.125.186.26/images/4_5.jpg"",""x"":782,""y"":385}]","4","","",""
"","html-button-response","29","323982","0.0-29.0","8/24/2023, 2:45:40 PM","conditionS","","1819.4000000003725","","","","","<p>How difficult was it to order the pictures?</p>","2",""
"","survey-text","30","330591","0.0-30.0","8/24/2023, 2:45:40 PM","conditionS","","6601.4000000003725","","","","","","","{""Q0"":""seemed like the right choice to me ""}"
"","survey-text","31","333132","0.0-31.0","8/24/2023, 2:45:40 PM","conditionS","","2534.7999999998137","","","","","","","{""Q0"":""26""}"
"","survey-text","32","337520","0.0-32.0","8/24/2023, 2:45:40 PM","conditionS","","4373.9000000003725","","","","","","","{""Q0"":""Male""}"
"","instructions","33","343959","0.0-33.0","8/24/2023, 2:45:40 PM","conditionS","[{""page_index"":0,""viewing_time"":6435.800000000745}]","6437.4000000003725","","","","","","",""
