"view_history","rt","trial_type","trial_index","time_elapsed","internal_node_id","subject","condition","responses","tiles_id","moves","final_locations","move_time","stimulus","button_pressed"
"[{""page_index"":0,""viewing_time"":3718.7999999998137},{""page_index"":1,""viewing_time"":688.8999999994412},{""page_index"":2,""viewing_time"":222.90000000037253}]","4632.699999999255","instructions","0","4635","0.0-0.0","18.8.2023, 15:09:20","conditionC","","","","","","",""
"","808.5","survey-text","1","5446","0.0-1.0","18.8.2023, 15:09:20","conditionC","{""Q0"":""""}","","","","","",""
"[{""page_index"":0,""viewing_time"":711.9000000003725},{""page_index"":1,""viewing_time"":623},{""page_index"":2,""viewing_time"":1188.3999999994412}]","2523.5999999996275","instructions","2","7970","0.0-2.0","18.8.2023, 15:09:20","conditionC","","","","","","",""
"","974.5","order","3","8945","0.0-3.0","18.8.2023, 15:09:20","conditionC","","[""test_3"",""test_4"",""test_1"",""test_2""]","[]","[]","0","",""
"[{""page_index"":0,""viewing_time"":1086.800000000745}]","1087","instructions","4","10033","0.0-4.0","18.8.2023, 15:09:20","conditionC","","","","","","",""
"","1739.5","order","5","11773","0.0-5.0","18.8.2023, 15:09:20","conditionC","","[""2_5"",""2_6"",""2_7"",""2_8""]","[]","[]","0","",""
"","1007.5999999996275","html-button-response","6","12782","0.0-6.0","18.8.2023, 15:09:20","conditionC","","","","","","<p>How difficult was it to order the pictures?</p>","4"
"","894.2000000001863","survey-text","7","13678","0.0-7.0","18.8.2023, 15:09:20","conditionC","{""Q0"":""""}","","","","","",""
"","1875","order","8","15553","0.0-8.0","18.8.2023, 15:09:20","conditionC","","[""7_1"",""7_2"",""7_4"",""7_3""]","[]","[]","0","",""
"","831.9000000003725","html-button-response","9","16386","0.0-9.0","18.8.2023, 15:09:20","conditionC","","","","","","<p>How difficult was it to order the pictures?</p>","3"
"","802.6000000005588","survey-text","10","17190","0.0-10.0","18.8.2023, 15:09:20","conditionC","{""Q0"":""""}","","","","","",""
"","1679.0999999996275","order","11","18869","0.0-11.0","18.8.2023, 15:09:20","conditionC","","[""2_5"",""2_6"",""2_7"",""2_8""]","[{""src"":""http://34.125.186.26/images/2_7.jpg"",""x"":361,""y"":338,""move_time"":997}]","[{""src"":""http://34.125.186.26/images/2_7.jpg"",""x"":361,""y"":338,""move_time"":997}]","0","",""
"","1074.7999999998137","html-button-response","12","19945","0.0-12.0","18.8.2023, 15:09:20","conditionC","","","","","","<p>How difficult was it to order the pictures?</p>","2"
"","578.4000000003725","survey-text","13","20525","0.0-13.0","18.8.2023, 15:09:20","conditionC","{""Q0"":""""}","","","","","",""
"","1787.0999999996275","order","14","22313","0.0-14.0","18.8.2023, 15:09:20","conditionC","","[""2_5"",""2_6"",""2_7"",""2_8""]","[{""src"":""http://34.125.186.26/images/2_7.jpg"",""x"":361,""y"":338,""move_time"":864}]","[{""src"":""http://34.125.186.26/images/2_7.jpg"",""x"":361,""y"":338,""move_time"":864}]","0","",""
"","1107.2999999998137","html-button-response","15","23421","0.0-15.0","18.8.2023, 15:09:20","conditionC","","","","","","<p>How difficult was it to order the pictures?</p>","2"
"","1166.8999999994412","survey-text","16","24590","0.0-16.0","18.8.2023, 15:09:20","conditionC","{""Q0"":""""}","","","","","",""
"","1547","order","17","26137","0.0-17.0","18.8.2023, 15:09:20","conditionC","","[""2_5"",""2_6"",""2_7"",""2_8""]","[{""src"":""http://34.125.186.26/images/2_7.jpg"",""x"":361,""y"":338,""move_time"":885}]","[{""src"":""http://34.125.186.26/images/2_7.jpg"",""x"":361,""y"":338,""move_time"":885}]","0","",""
"","976","html-button-response","18","27114","0.0-18.0","18.8.2023, 15:09:20","conditionC","","","","","","<p>How difficult was it to order the pictures?</p>","2"
"","606.8000000007451","survey-text","19","27722","0.0-19.0","18.8.2023, 15:09:20","conditionC","{""Q0"":""""}","","","","","",""
"","1522.3999999994412","order","20","29245","0.0-20.0","18.8.2023, 15:09:20","conditionC","","[""2_5"",""2_6"",""2_7"",""2_8""]","[{""src"":""http://34.125.186.26/images/2_7.jpg"",""x"":361,""y"":338,""move_time"":819}]","[{""src"":""http://34.125.186.26/images/2_7.jpg"",""x"":361,""y"":338,""move_time"":819}]","0","",""
"","1007.5999999996275","html-button-response","21","30254","0.0-21.0","18.8.2023, 15:09:20","conditionC","","","","","","<p>How difficult was it to order the pictures?</p>","2"
"","702.5","survey-text","22","30958","0.0-22.0","18.8.2023, 15:09:20","conditionC","{""Q0"":""""}","","","","","",""
"","2682.699999999255","order","23","33642","0.0-23.0","18.8.2023, 15:09:20","conditionC","","[""2_5"",""2_6"",""2_7"",""2_8""]","[{""src"":""http://34.125.186.26/images/2_7.jpg"",""x"":361,""y"":338,""move_time"":1697}]","[{""src"":""http://34.125.186.26/images/2_7.jpg"",""x"":361,""y"":338,""move_time"":1697}]","0","",""
"","886.7999999998137","html-button-response","24","34530","0.0-24.0","18.8.2023, 15:09:20","conditionC","","","","","","<p>How difficult was it to order the pictures?</p>","3"
"","1035","survey-text","25","35566","0.0-25.0","18.8.2023, 15:09:20","conditionC","{""Q0"":""""}","","","","","",""
"","16218.599999999627","order","26","51785","0.0-26.0","18.8.2023, 15:09:20","conditionC","","[""2_5"",""2_6"",""2_7"",""2_8""]","[]","[]","0","",""
"","1755","html-button-response","27","53541","0.0-27.0","18.8.2023, 15:09:20","conditionC","","","","","","<p>How difficult was it to order the pictures?</p>","2"
"","990.7999999998137","survey-text","28","54533","0.0-28.0","18.8.2023, 15:09:20","conditionC","{""Q0"":""""}","","","","","",""
