[{"view_history":"[{\"page_index\":0,\"viewing_time\":2045.199999988079},{\"page_index\":1,\"viewing_time\":211},{\"page_index\":2,\"viewing_time\":208.60000002384186}]","rt":2465.199999988079,"trial_type":"instructions","trial_index":0,"time_elapsed":2468,"internal_node_id":"0.0-0.0","subject":"8.7.2023, 0:54:04","condition":"conditionB"},{"rt":1020.3000000119209,"responses":"{\"Q0\":\"\"}","trial_type":"survey-text","trial_index":1,"time_elapsed":3492,"internal_node_id":"0.0-1.0","subject":"8.7.2023, 0:54:04","condition":"conditionB"},{"view_history":"[{\"page_index\":0,\"viewing_time\":639.3999999761581},{\"page_index\":1,\"viewing_time\":207.80000001192093},{\"page_index\":2,\"viewing_time\":900.1999999880791}]","rt":1748,"trial_type":"instructions","trial_index":2,"time_elapsed":5240,"internal_node_id":"0.0-2.0","subject":"8.7.2023, 0:54:04","condition":"conditionB"},{"init_locations":[{"src":"http://34.125.186.26/images/test_3.jpg","x":309,"y":76},{"src":"http://34.125.186.26/images/test_4.jpg","x":470,"y":76},{"src":"http://34.125.186.26/images/test_1.jpg","x":631,"y":76},{"src":"http://34.125.186.26/images/test_2.jpg","x":793,"y":76}],"moves":[],"final_locations":[{}],"stars_time":[5514.699999988079],"end_time":[7496],"rt":1981.300000011921,"trial_type":"order","trial_index":3,"time_elapsed":7224,"internal_node_id":"0.0-3.0","subject":"8.7.2023, 0:54:04","condition":"conditionB"},{"view_history":"[{\"page_index\":0,\"viewing_time\":1266.699999988079}]","rt":1266.8999999761581,"trial_type":"instructions","trial_index":4,"time_elapsed":8491,"internal_node_id":"0.0-4.0","subject":"8.7.2023, 0:54:04","condition":"conditionB"},{"init_locations":[{"src":"http://34.125.186.26/images/2_5.jpg","x":309,"y":76},{"src":"http://34.125.186.26/images/2_6.jpg","x":470,"y":76},{"src":"http://34.125.186.26/images/2_7.jpg","x":631,"y":76},{"src":"http://34.125.186.26/images/2_8.jpg","x":793,"y":76}],"moves":[],"final_locations":[{}],"stars_time":[8764.399999976158],"end_time":[10780.800000011921],"rt":2016.4000000357628,"trial_type":"order","trial_index":5,"time_elapsed":10509,"internal_node_id":"0.0-5.0","subject":"8.7.2023, 0:54:04","condition":"conditionB"},{"rt":961.8000000119209,"stimulus":"<p>How difficult was it to order the pictures?</p>","button_pressed":"4","trial_type":"html-button-response","trial_index":6,"time_elapsed":11472,"internal_node_id":"0.0-6.0","subject":"8.7.2023, 0:54:04","condition":"conditionB"},{"rt":862,"responses":"{\"Q0\":\"\"}","trial_type":"survey-text","trial_index":7,"time_elapsed":12336,"internal_node_id":"0.0-7.0","subject":"8.7.2023, 0:54:04","condition":"conditionB"},{"init_locations":[{"src":"http://34.125.186.26/images/7_1.jpg","x":309,"y":76},{"src":"http://34.125.186.26/images/7_2.jpg","x":470,"y":76},{"src":"http://34.125.186.26/images/7_4.jpg","x":631,"y":76},{"src":"http://34.125.186.26/images/7_3.jpg","x":793,"y":76}],"moves":[],"final_locations":[{}],"stars_time":[12608.5],"end_time":[13583.300000011921],"rt":974.8000000119209,"trial_type":"order","trial_index":8,"time_elapsed":13311,"internal_node_id":"0.0-8.0","subject":"8.7.2023, 0:54:04","condition":"conditionB"}]