"success","trial_type","trial_index","time_elapsed","internal_node_id","subject","condition","view_history","rt","initial_locations","moves","final_locations_3","number_of_moves","stimulus","button_pressed","responses"
"true","fullscreen","0","3694","0.0-0.0","9/1/2023, 11:10:10 PM","conditionS","","","","","","","","",""
"","instructions","1","87632","0.0-1.0","9/1/2023, 11:10:10 PM","conditionS","[{""page_index"":0,""viewing_time"":14965.799999952316},{""page_index"":1,""viewing_time"":59321.90000009537},{""page_index"":2,""viewing_time"":8541.199999928474},{""page_index"":3,""viewing_time"":1108.3000000715256}]","83937.89999997616","","","","","","",""
"","order","2","101536","0.0-2.0","9/1/2023, 11:10:10 PM","conditionS","","13902","[""test_3"",""test_4"",""test_2"",""test_1""]","[{""src"":""http://34.125.186.26/images/test_1.jpg"",""x"":636,""y"":576,""move_time"":8765},{""src"":""http://34.125.186.26/images/test_2.jpg"",""x"":798,""y"":576,""move_time"":1163},{""src"":""http://34.125.186.26/images/test_3.jpg"",""x"":960,""y"":576,""move_time"":1234},{""src"":""http://34.125.186.26/images/test_4.jpg"",""x"":1122,""y"":576,""move_time"":1220}]","[{""src"":""http://34.125.186.26/images/test_1.jpg"",""x"":636,""y"":576},{""src"":""http://34.125.186.26/images/test_2.jpg"",""x"":798,""y"":576},{""src"":""http://34.125.186.26/images/test_3.jpg"",""x"":960,""y"":576},{""src"":""http://34.125.186.26/images/test_4.jpg"",""x"":1122,""y"":576}]","4","","",""
"","instructions","3","104047","0.0-3.0","9/1/2023, 11:10:10 PM","conditionS","[{""page_index"":0,""viewing_time"":2510.7999999523163}]","2511","","","","","","",""
"","order","4","191940","0.0-4.0","9/1/2023, 11:10:10 PM","conditionS","","87892","[""7_5"",""7_6"",""7_7"",""7_8""]","[{""src"":""http://34.125.186.26/images/7_7.jpg"",""x"":636,""y"":576,""move_time"":36206},{""src"":""http://34.125.186.26/images/7_6.jpg"",""x"":798,""y"":576,""move_time"":1371},{""src"":""http://34.125.186.26/images/7_5.jpg"",""x"":960,""y"":576,""move_time"":1540},{""src"":""http://34.125.186.26/images/7_8.jpg"",""x"":1122,""y"":576,""move_time"":1951},{""src"":""http://34.125.186.26/images/7_5.jpg"",""x"":798,""y"":576,""move_time"":22141}]","[{""src"":""http://34.125.186.26/images/7_7.jpg"",""x"":636,""y"":576},{""src"":""http://34.125.186.26/images/7_5.jpg"",""x"":798,""y"":576},{""src"":""http://34.125.186.26/images/7_6.jpg"",""x"":960,""y"":576},{""src"":""http://34.125.186.26/images/7_8.jpg"",""x"":1122,""y"":576}]","5","","",""
"","html-button-response","5","195285","0.0-5.0","9/1/2023, 11:10:10 PM","conditionS","","3343.100000023842","","","","","<p>How difficult was it to order the pictures?</p>","4",""
"","survey-text","6","237213","0.0-6.0","9/1/2023, 11:10:10 PM","conditionS","","41923.09999990463","","","","","","","{""Q0"":""I tried to fit in the last frame with the two individuals eating a burger. It didn't seem to fit in well with the others.""}"
"","order","7","250552","0.0-7.0","9/1/2023, 11:10:10 PM","conditionS","","13337","[""2_1"",""2_3"",""2_2"",""2_4""]","[{""src"":""http://34.125.186.26/images/2_1.jpg"",""x"":636,""y"":576,""move_time"":7710},{""src"":""http://34.125.186.26/images/2_2.jpg"",""x"":798,""y"":576,""move_time"":965},{""src"":""http://34.125.186.26/images/2_3.jpg"",""x"":960,""y"":576,""move_time"":1004},{""src"":""http://34.125.186.26/images/2_4.jpg"",""x"":1122,""y"":576,""move_time"":619}]","[{""src"":""http://34.125.186.26/images/2_1.jpg"",""x"":636,""y"":576},{""src"":""http://34.125.186.26/images/2_2.jpg"",""x"":798,""y"":576},{""src"":""http://34.125.186.26/images/2_3.jpg"",""x"":960,""y"":576},{""src"":""http://34.125.186.26/images/2_4.jpg"",""x"":1122,""y"":576}]","4","","",""
"","html-button-response","8","252115","0.0-8.0","9/1/2023, 11:10:10 PM","conditionS","","1562.6000000238419","","","","","<p>How difficult was it to order the pictures?</p>","0",""
"","survey-text","9","287319","0.0-9.0","9/1/2023, 11:10:10 PM","conditionS","","35202.5","","","","","","","{""Q0"":""It was just a girl in the rain finding and using an umbrella.""}"
"","order","10","349569","0.0-10.0","9/1/2023, 11:10:10 PM","conditionS","","62249","[""3_5"",""3_6"",""3_7"",""3_8""]","[{""src"":""http://34.125.186.26/images/3_5.jpg"",""x"":636,""y"":576,""move_time"":11601},{""src"":""http://34.125.186.26/images/3_7.jpg"",""x"":798,""y"":576,""move_time"":2983},{""src"":""http://34.125.186.26/images/3_6.jpg"",""x"":960,""y"":576,""move_time"":1230},{""src"":""http://34.125.186.26/images/3_8.jpg"",""x"":1122,""y"":576,""move_time"":2328}]","[{""src"":""http://34.125.186.26/images/3_5.jpg"",""x"":636,""y"":576},{""src"":""http://34.125.186.26/images/3_7.jpg"",""x"":798,""y"":576},{""src"":""http://34.125.186.26/images/3_6.jpg"",""x"":960,""y"":576},{""src"":""http://34.125.186.26/images/3_8.jpg"",""x"":1122,""y"":576}]","4","","",""
"","html-button-response","11","351237","0.0-11.0","9/1/2023, 11:10:10 PM","conditionS","","1667.8999999761581","","","","","<p>How difficult was it to order the pictures?</p>","4",""
"","survey-text","12","369268","0.0-12.0","9/1/2023, 11:10:10 PM","conditionS","","18029.100000023842","","","","","","","{""Q0"":""The character holding the picture didn't seem to fit with the other frames.""}"
"","order","13","383871","0.0-13.0","9/1/2023, 11:10:10 PM","conditionS","","14603","[""5_2"",""5_4"",""5_1"",""5_3""]","[{""src"":""http://34.125.186.26/images/5_4.jpg"",""x"":1122,""y"":576,""move_time"":6850},{""src"":""http://34.125.186.26/images/5_1.jpg"",""x"":636,""y"":576,""move_time"":1688},{""src"":""http://34.125.186.26/images/5_2.jpg"",""x"":798,""y"":576,""move_time"":914},{""src"":""http://34.125.186.26/images/5_3.jpg"",""x"":960,""y"":576,""move_time"":1648}]","[{""src"":""http://34.125.186.26/images/5_1.jpg"",""x"":636,""y"":576},{""src"":""http://34.125.186.26/images/5_2.jpg"",""x"":798,""y"":576},{""src"":""http://34.125.186.26/images/5_3.jpg"",""x"":960,""y"":576},{""src"":""http://34.125.186.26/images/5_4.jpg"",""x"":1122,""y"":576}]","4","","",""
"","html-button-response","14","385749","0.0-14.0","9/1/2023, 11:10:10 PM","conditionS","","1876.8999999761581","","","","","<p>How difficult was it to order the pictures?</p>","0",""
"","survey-text","15","405668","0.0-15.0","9/1/2023, 11:10:10 PM","conditionS","","19917.100000023842","","","","","","","{""Q0"":""This was a cat pulling the string of the hoodie.""}"
"","order","16","439585","0.0-16.0","9/1/2023, 11:10:10 PM","conditionS","","33917","[""9_5"",""9_6"",""9_7"",""9_8""]","[{""src"":""http://34.125.186.26/images/9_5.jpg"",""x"":798,""y"":576,""move_time"":17200},{""src"":""http://34.125.186.26/images/9_5.jpg"",""x"":636,""y"":576,""move_time"":3669},{""src"":""http://34.125.186.26/images/9_8.jpg"",""x"":960,""y"":576,""move_time"":4146},{""src"":""http://34.125.186.26/images/9_8.jpg"",""x"":798,""y"":576,""move_time"":1239},{""src"":""http://34.125.186.26/images/9_6.jpg"",""x"":960,""y"":576,""move_time"":3375},{""src"":""http://34.125.186.26/images/9_7.jpg"",""x"":1122,""y"":576,""move_time"":821}]","[{""src"":""http://34.125.186.26/images/9_5.jpg"",""x"":636,""y"":576},{""src"":""http://34.125.186.26/images/9_8.jpg"",""x"":798,""y"":576},{""src"":""http://34.125.186.26/images/9_6.jpg"",""x"":960,""y"":576},{""src"":""http://34.125.186.26/images/9_7.jpg"",""x"":1122,""y"":576}]","6","","",""
"","html-button-response","17","440838","0.0-17.0","9/1/2023, 11:10:10 PM","conditionS","","1251.2999999523163","","","","","<p>How difficult was it to order the pictures?</p>","4",""
"","survey-text","18","482697","0.0-18.0","9/1/2023, 11:10:10 PM","conditionS","","41858","","","","","","","{""Q0"":""There were 4 frames of what looked like an explosion. It is hard to tell where things go as a result.""}"
"","order","19","529071","0.0-19.0","9/1/2023, 11:10:10 PM","conditionS","","46373","[""1_5"",""1_6"",""1_7"",""1_8""]","[{""src"":""http://34.125.186.26/images/1_5.jpg"",""x"":960,""y"":576,""move_time"":29315},{""src"":""http://34.125.186.26/images/1_8.jpg"",""x"":1122,""y"":576,""move_time"":927},{""src"":""http://34.125.186.26/images/1_6.jpg"",""x"":636,""y"":576,""move_time"":1660},{""src"":""http://34.125.186.26/images/1_7.jpg"",""x"":798,""y"":576,""move_time"":1286}]","[{""src"":""http://34.125.186.26/images/1_6.jpg"",""x"":636,""y"":576},{""src"":""http://34.125.186.26/images/1_7.jpg"",""x"":798,""y"":576},{""src"":""http://34.125.186.26/images/1_5.jpg"",""x"":960,""y"":576},{""src"":""http://34.125.186.26/images/1_8.jpg"",""x"":1122,""y"":576}]","4","","",""
"","html-button-response","20","531495","0.0-20.0","9/1/2023, 11:10:10 PM","conditionS","","2422.899999976158","","","","","<p>How difficult was it to order the pictures?</p>","2",""
"","survey-text","21","604096","0.0-21.0","9/1/2023, 11:10:10 PM","conditionS","","72599.19999992847","","","","","","","{""Q0"":""This looks like a bear travelling around.""}"
"","order","22","664655","0.0-22.0","9/1/2023, 11:10:10 PM","conditionS","","60559","[""8_5"",""8_6"",""8_7"",""8_8""]","[{""src"":""http://34.125.186.26/images/8_5.jpg"",""x"":636,""y"":576,""move_time"":39759},{""src"":""http://34.125.186.26/images/8_5.jpg"",""x"":798,""y"":576,""move_time"":3465},{""src"":""http://34.125.186.26/images/8_6.jpg"",""x"":636,""y"":576,""move_time"":1218},{""src"":""http://34.125.186.26/images/8_7.jpg"",""x"":960,""y"":576,""move_time"":1696},{""src"":""http://34.125.186.26/images/8_8.jpg"",""x"":1122,""y"":576,""move_time"":6571}]","[{""src"":""http://34.125.186.26/images/8_6.jpg"",""x"":636,""y"":576},{""src"":""http://34.125.186.26/images/8_5.jpg"",""x"":798,""y"":576},{""src"":""http://34.125.186.26/images/8_7.jpg"",""x"":960,""y"":576},{""src"":""http://34.125.186.26/images/8_8.jpg"",""x"":1122,""y"":576}]","5","","",""
"","html-button-response","23","666081","0.0-23.0","9/1/2023, 11:10:10 PM","conditionS","","1425.2000000476837","","","","","<p>How difficult was it to order the pictures?</p>","4",""
"","survey-text","24","676257","0.0-24.0","9/1/2023, 11:10:10 PM","conditionS","","10174","","","","","","","{""Q0"":""This looked like 4 disjointed frames.""}"
"","order","25","684940","0.0-25.0","9/1/2023, 11:10:10 PM","conditionS","","8683","[""6_4"",""6_2"",""6_1"",""6_3""]","[{""src"":""http://34.125.186.26/images/6_1.jpg"",""x"":636,""y"":576,""move_time"":4174},{""src"":""http://34.125.186.26/images/6_2.jpg"",""x"":798,""y"":576,""move_time"":900},{""src"":""http://34.125.186.26/images/6_3.jpg"",""x"":960,""y"":576,""move_time"":883},{""src"":""http://34.125.186.26/images/6_4.jpg"",""x"":1122,""y"":576,""move_time"":1047}]","[{""src"":""http://34.125.186.26/images/6_1.jpg"",""x"":636,""y"":576},{""src"":""http://34.125.186.26/images/6_2.jpg"",""x"":798,""y"":576},{""src"":""http://34.125.186.26/images/6_3.jpg"",""x"":960,""y"":576},{""src"":""http://34.125.186.26/images/6_4.jpg"",""x"":1122,""y"":576}]","4","","",""
"","html-button-response","26","688521","0.0-26.0","9/1/2023, 11:10:10 PM","conditionS","","3580.100000023842","","","","","<p>How difficult was it to order the pictures?</p>","0",""
"","survey-text","27","707098","0.0-27.0","9/1/2023, 11:10:10 PM","conditionS","","18576","","","","","","","{""Q0"":""This was arrangement by number of birds.""}"
"","order","28","736961","0.0-28.0","9/1/2023, 11:10:10 PM","conditionS","","29862","[""4_3"",""4_4"",""4_1"",""4_2""]","[{""src"":""http://34.125.186.26/images/4_2.jpg"",""x"":798,""y"":576,""move_time"":16768},{""src"":""http://34.125.186.26/images/4_2.jpg"",""x"":636,""y"":576,""move_time"":1265},{""src"":""http://34.125.186.26/images/4_1.jpg"",""x"":798,""y"":576,""move_time"":1262},{""src"":""http://34.125.186.26/images/4_3.jpg"",""x"":960,""y"":576,""move_time"":1671},{""src"":""http://34.125.186.26/images/4_4.jpg"",""x"":1122,""y"":576,""move_time"":1089}]","[{""src"":""http://34.125.186.26/images/4_2.jpg"",""x"":636,""y"":576},{""src"":""http://34.125.186.26/images/4_1.jpg"",""x"":798,""y"":576},{""src"":""http://34.125.186.26/images/4_3.jpg"",""x"":960,""y"":576},{""src"":""http://34.125.186.26/images/4_4.jpg"",""x"":1122,""y"":576}]","5","","",""
"","html-button-response","29","739148","0.0-29.0","9/1/2023, 11:10:10 PM","conditionS","","2186","","","","","<p>How difficult was it to order the pictures?</p>","2",""
"","survey-text","30","764435","0.0-30.0","9/1/2023, 11:10:10 PM","conditionS","","25285.600000023842","","","","","","","{""Q0"":""This was 2 people caught in the rain and forced to use an umbrella.""}"
"","survey-text","31","767956","0.0-31.0","9/1/2023, 11:10:10 PM","conditionS","","3518.3000000715256","","","","","","","{""Q0"":""36""}"
"","survey-text","32","771655","0.0-32.0","9/1/2023, 11:10:10 PM","conditionS","","3694.8000000715256","","","","","","","{""Q0"":""male""}"
"","instructions","33","787163","0.0-33.0","9/1/2023, 11:10:10 PM","conditionS","[{""page_index"":0,""viewing_time"":15506.700000047684}]","15507.299999952316","","","","","","",""
