[{"view_history":"[{\"page_index\":0,\"viewing_time\":1695.7999999821186},{\"page_index\":1,\"viewing_time\":1011.2000000178814},{\"page_index\":2,\"viewing_time\":648.7999999821186}]","rt":3356.2999999821186,"trial_type":"instructions","trial_index":0,"time_elapsed":3361,"internal_node_id":"0.0-0.0","subject":"25.7.2023, 2:16:48","condition":"conditionC"},{"rt":5397.600000023842,"responses":"{\"Q0\":\"21\"}","trial_type":"survey-text","trial_index":1,"time_elapsed":8764,"internal_node_id":"0.0-1.0","subject":"25.7.2023, 2:16:48","condition":"conditionC"},{"view_history":"[{\"page_index\":0,\"viewing_time\":1538.5},{\"page_index\":1,\"viewing_time\":4136.0999999940395},{\"page_index\":2,\"viewing_time\":5952}]","rt":11626.899999976158,"trial_type":"instructions","trial_index":2,"time_elapsed":20392,"internal_node_id":"0.0-2.0","subject":"25.7.2023, 2:16:48","condition":"conditionC"},{"init_locations":[{"src":"http://34.125.186.26/images/test_3.jpg","x":316,"y":103},{"src":"http://34.125.186.26/images/test_4.jpg","x":477,"y":103},{"src":"http://34.125.186.26/images/test_1.jpg","x":639,"y":103},{"src":"http://34.125.186.26/images/test_2.jpg","x":800,"y":103}],"moves":[{"src":"http://34.125.186.26/images/test_3.jpg","x":316,"y":341,"move_time":4218.699999988079},{"src":"http://34.125.186.26/images/test_4.jpg","x":477,"y":341,"move_time":1697.6000000238419},{"src":"http://34.125.186.26/images/test_1.jpg","x":639,"y":341,"move_time":2483.5},{"src":"http://34.125.186.26/images/test_2.jpg","x":800,"y":341,"move_time":1037.7999999821186}],"final_locations":[{"final":{"src":"http://34.125.186.26/images/test_2.jpg","x":800,"y":341,"move_time":1037.7999999821186}}],"stars_time":[22166],"end_time":[32456.69999998808],"rt":10290.699999988079,"trial_type":"order","trial_index":3,"time_elapsed":30684,"internal_node_id":"0.0-3.0","subject":"25.7.2023, 2:16:48","condition":"conditionC"},{"view_history":"[{\"page_index\":0,\"viewing_time\":4454.5999999940395}]","rt":4454.799999982119,"trial_type":"instructions","trial_index":4,"time_elapsed":35140,"internal_node_id":"0.0-4.0","subject":"25.7.2023, 2:16:48","condition":"conditionC"},{"init_locations":[{"src":"http://34.125.186.26/images/2_5.jpg","x":316,"y":103},{"src":"http://34.125.186.26/images/2_6.jpg","x":477,"y":103},{"src":"http://34.125.186.26/images/2_7.jpg","x":639,"y":103},{"src":"http://34.125.186.26/images/2_8.jpg","x":800,"y":103}],"moves":[{"src":"http://34.125.186.26/images/2_5.jpg","x":316,"y":341,"move_time":2171.300000011921},{"src":"http://34.125.186.26/images/2_6.jpg","x":477,"y":341,"move_time":828.4000000059605},{"src":"http://34.125.186.26/images/2_7.jpg","x":639,"y":341,"move_time":837},{"src":"http://34.125.186.26/images/2_8.jpg","x":800,"y":341,"move_time":1006.5}],"final_locations":[{"final":{"src":"http://34.125.186.26/images/2_8.jpg","x":800,"y":341,"move_time":1006.5}}],"stars_time":[36913.09999999404],"end_time":[42936.40000000596],"rt":6023.300000011921,"trial_type":"order","trial_index":5,"time_elapsed":41164,"internal_node_id":"0.0-5.0","subject":"25.7.2023, 2:16:48","condition":"conditionC"},{"rt":1674.699999988079,"stimulus":"<p>How difficult was it to order the pictures?</p>","button_pressed":"1","trial_type":"html-button-response","trial_index":6,"time_elapsed":42840,"internal_node_id":"0.0-6.0","subject":"25.7.2023, 2:16:48","condition":"conditionC"},{"rt":923.2999999821186,"responses":"{\"Q0\":\"\"}","trial_type":"survey-text","trial_index":7,"time_elapsed":43768,"internal_node_id":"0.0-7.0","subject":"25.7.2023, 2:16:48","condition":"conditionC"},{"init_locations":[{"src":"http://34.125.186.26/images/7_1.jpg","x":316,"y":103},{"src":"http://34.125.186.26/images/7_2.jpg","x":477,"y":103},{"src":"http://34.125.186.26/images/7_4.jpg","x":639,"y":103},{"src":"http://34.125.186.26/images/7_3.jpg","x":800,"y":103}],"moves":[{"src":"http://34.125.186.26/images/7_1.jpg","x":316,"y":341,"move_time":2072.300000011921},{"src":"http://34.125.186.26/images/7_2.jpg","x":477,"y":341,"move_time":817.3000000119209},{"src":"http://34.125.186.26/images/7_4.jpg","x":639,"y":341,"move_time":1003.5999999940395},{"src":"http://34.125.186.26/images/7_3.jpg","x":800,"y":341,"move_time":831}],"final_locations":[{"final":{"src":"http://34.125.186.26/images/7_3.jpg","x":800,"y":341,"move_time":831}}],"stars_time":[45541.69999998808],"end_time":[51744.09999999404],"rt":6202.4000000059605,"trial_type":"order","trial_index":8,"time_elapsed":49971,"internal_node_id":"0.0-8.0","subject":"25.7.2023, 2:16:48","condition":"conditionC"}]