[{"init_locations":[{"src":"http://34.125.186.26/images/1_1.jpg","x":317,"y":122},{"src":"http://34.125.186.26/images/1_2.jpg","x":478,"y":122},{"src":"http://34.125.186.26/images/1_3.jpg","x":638,"y":122},{"src":"http://34.125.186.26/images/1_4.jpg","x":799,"y":122}],"moves":[{"src":"http://34.125.186.26/images/1_3.jpg","x":638,"y":361,"move_time":5749.600000023842}],"final_locations":[{"final":{"src":"http://34.125.186.26/images/1_3.jpg","x":638,"y":361,"move_time":5749.600000023842}}],"stars_time":[601],"end_time":[13841.600000023842],"rt":13240.600000023842,"trial_type":"order","trial_index":0,"time_elapsed":13247,"internal_node_id":"0.0-0.0","subject":1688676621999,"condition":"conditionC"},{"init_locations":[{"src":"http://34.125.186.26/images/1_5.jpg","x":317,"y":111},{"src":"http://34.125.186.26/images/1_6.jpg","x":478,"y":111},{"src":"http://34.125.186.26/images/1_7.jpg","x":638,"y":111},{"src":"http://34.125.186.26/images/1_8.jpg","x":799,"y":111}],"moves":[],"final_locations":[{}],"stars_time":[13842.600000023842],"end_time":[14037.800000011921],"rt":195.19999998807907,"trial_type":"order","trial_index":1,"time_elapsed":13443,"internal_node_id":"0.0-1.0","subject":1688676621999,"condition":"conditionC"},{"init_locations":[{"src":"http://34.125.186.26/images/2_1.jpg","x":317,"y":111},{"src":"http://34.125.186.26/images/2_2.jpg","x":478,"y":111},{"src":"http://34.125.186.26/images/2_3.jpg","x":638,"y":111},{"src":"http://34.125.186.26/images/2_4.jpg","x":799,"y":111}],"moves":[],"final_locations":[{}],"stars_time":[14038.199999988079],"end_time":[14235.100000023842],"rt":196.9000000357628,"trial_type":"order","trial_index":2,"time_elapsed":13640,"internal_node_id":"0.0-2.0","subject":1688676621999,"condition":"conditionC"},{"init_locations":[{"src":"http://34.125.186.26/images/2_5.jpg","x":317,"y":111},{"src":"http://34.125.186.26/images/2_6.jpg","x":478,"y":111},{"src":"http://34.125.186.26/images/2_7.jpg","x":638,"y":111},{"src":"http://34.125.186.26/images/2_8.jpg","x":799,"y":111}],"moves":[],"final_locations":[{}],"stars_time":[14235.699999988079],"end_time":[14405.699999988079],"rt":170,"trial_type":"order","trial_index":3,"time_elapsed":13811,"internal_node_id":"0.0-3.0","subject":1688676621999,"condition":"conditionC"},{"init_locations":[{"src":"http://34.125.186.26/images/3_1.jpg","x":317,"y":111},{"src":"http://34.125.186.26/images/3_2.jpg","x":478,"y":111},{"src":"http://34.125.186.26/images/3_3.jpg","x":638,"y":111},{"src":"http://34.125.186.26/images/3_4.jpg","x":799,"y":111}],"moves":[],"final_locations":[{}],"stars_time":[14406.300000011921],"end_time":[14578.100000023842],"rt":171.80000001192093,"trial_type":"order","trial_index":4,"time_elapsed":13983,"internal_node_id":"0.0-4.0","subject":1688676621999,"condition":"conditionC"},{"init_locations":[{"src":"http://34.125.186.26/images/3_5.jpg","x":317,"y":111},{"src":"http://34.125.186.26/images/3_6.jpg","x":478,"y":111},{"src":"http://34.125.186.26/images/3_7.jpg","x":638,"y":111},{"src":"http://34.125.186.26/images/3_8.jpg","x":799,"y":111}],"moves":[],"final_locations":[{}],"stars_time":[14578.5],"end_time":[14746.199999988079],"rt":167.69999998807907,"trial_type":"order","trial_index":5,"time_elapsed":14151,"internal_node_id":"0.0-5.0","subject":1688676621999,"condition":"conditionC"},{"init_locations":[{"src":"http://34.125.186.26/images/4_1.jpg","x":317,"y":111},{"src":"http://34.125.186.26/images/4_2.jpg","x":478,"y":111},{"src":"http://34.125.186.26/images/4_3.jpg","x":638,"y":111},{"src":"http://34.125.186.26/images/4_4.jpg","x":799,"y":111}],"moves":[],"final_locations":[{}],"stars_time":[14746.699999988079],"end_time":[14921.600000023842],"rt":174.9000000357628,"trial_type":"order","trial_index":6,"time_elapsed":14327,"internal_node_id":"0.0-6.0","subject":1688676621999,"condition":"conditionC"},{"init_locations":[{"src":"http://34.125.186.26/images/4_5.jpg","x":317,"y":111},{"src":"http://34.125.186.26/images/4_6.jpg","x":478,"y":111},{"src":"http://34.125.186.26/images/4_7.jpg","x":638,"y":111},{"src":"http://34.125.186.26/images/4_8.jpg","x":799,"y":111}],"moves":[],"final_locations":[{}],"stars_time":[14922],"end_time":[15098.100000023842],"rt":176.10000002384186,"trial_type":"order","trial_index":7,"time_elapsed":14503,"internal_node_id":"0.0-7.0","subject":1688676621999,"condition":"conditionC"},{"init_locations":[{"src":"http://34.125.186.26/images/5_1.jpg","x":317,"y":111},{"src":"http://34.125.186.26/images/5_2.jpg","x":478,"y":111},{"src":"http://34.125.186.26/images/5_3.jpg","x":638,"y":111},{"src":"http://34.125.186.26/images/5_4.jpg","x":799,"y":111}],"moves":[],"final_locations":[{}],"stars_time":[15098.900000035763],"end_time":[15280.400000035763],"rt":181.5,"trial_type":"order","trial_index":8,"time_elapsed":14686,"internal_node_id":"0.0-8.0","subject":1688676621999,"condition":"conditionC"},{"init_locations":[{"src":"http://34.125.186.26/images/5_5.jpg","x":317,"y":111},{"src":"http://34.125.186.26/images/5_6.jpg","x":478,"y":111},{"src":"http://34.125.186.26/images/5_7.jpg","x":638,"y":111},{"src":"http://34.125.186.26/images/5_8.jpg","x":799,"y":111}],"moves":[],"final_locations":[{}],"stars_time":[15281.199999988079],"end_time":[15469.199999988079],"rt":188,"trial_type":"order","trial_index":9,"time_elapsed":14875,"internal_node_id":"0.0-9.0","subject":1688676621999,"condition":"conditionC"},{"init_locations":[{"src":"http://34.125.186.26/images/6_1.jpg","x":317,"y":111},{"src":"http://34.125.186.26/images/6_2.jpg","x":478,"y":111},{"src":"http://34.125.186.26/images/6_3.jpg","x":638,"y":111},{"src":"http://34.125.186.26/images/6_4.jpg","x":799,"y":111}],"moves":[],"final_locations":[{}],"stars_time":[15470],"end_time":[15630],"rt":160,"trial_type":"order","trial_index":10,"time_elapsed":15035,"internal_node_id":"0.0-10.0","subject":1688676621999,"condition":"conditionC"},{"init_locations":[{"src":"http://34.125.186.26/images/6_5.jpg","x":317,"y":111},{"src":"http://34.125.186.26/images/6_6.jpg","x":478,"y":111},{"src":"http://34.125.186.26/images/6_7.jpg","x":638,"y":111},{"src":"http://34.125.186.26/images/6_8.jpg","x":799,"y":111}],"moves":[],"final_locations":[{}],"stars_time":[15630.600000023842],"end_time":[15805.199999988079],"rt":174.5999999642372,"trial_type":"order","trial_index":11,"time_elapsed":15210,"internal_node_id":"0.0-11.0","subject":1688676621999,"condition":"conditionC"},{"init_locations":[{"src":"http://34.125.186.26/images/7_1.jpg","x":317,"y":111},{"src":"http://34.125.186.26/images/7_2.jpg","x":478,"y":111},{"src":"http://34.125.186.26/images/7_3.jpg","x":638,"y":111},{"src":"http://34.125.186.26/images/7_4.jpg","x":799,"y":111}],"moves":[],"final_locations":[{}],"stars_time":[15805.800000011921],"end_time":[15980],"rt":174.19999998807907,"trial_type":"order","trial_index":12,"time_elapsed":15385,"internal_node_id":"0.0-12.0","subject":1688676621999,"condition":"conditionC"},{"init_locations":[{"src":"http://34.125.186.26/images/7_5.jpg","x":317,"y":111},{"src":"http://34.125.186.26/images/7_6.jpg","x":478,"y":111},{"src":"http://34.125.186.26/images/7_7.jpg","x":638,"y":111},{"src":"http://34.125.186.26/images/7_8.jpg","x":799,"y":111}],"moves":[],"final_locations":[{}],"stars_time":[15980.400000035763],"end_time":[16164.5],"rt":184.0999999642372,"trial_type":"order","trial_index":13,"time_elapsed":15570,"internal_node_id":"0.0-13.0","subject":1688676621999,"condition":"conditionC"},{"init_locations":[{"src":"http://34.125.186.26/images/8_1.jpg","x":317,"y":111},{"src":"http://34.125.186.26/images/8_2.jpg","x":478,"y":111},{"src":"http://34.125.186.26/images/8_3.jpg","x":638,"y":111},{"src":"http://34.125.186.26/images/8_4.jpg","x":799,"y":111}],"moves":[],"final_locations":[{}],"stars_time":[16165.300000011921],"end_time":[16338.199999988079],"rt":172.89999997615814,"trial_type":"order","trial_index":14,"time_elapsed":15743,"internal_node_id":"0.0-14.0","subject":1688676621999,"condition":"conditionC"},{"init_locations":[{"src":"http://34.125.186.26/images/8_5.jpg","x":317,"y":111},{"src":"http://34.125.186.26/images/8_6.jpg","x":478,"y":111},{"src":"http://34.125.186.26/images/8_7.jpg","x":638,"y":111},{"src":"http://34.125.186.26/images/8_8.jpg","x":799,"y":111}],"moves":[],"final_locations":[{}],"stars_time":[16338.800000011921],"end_time":[16527.80000001192],"rt":189,"trial_type":"order","trial_index":15,"time_elapsed":15933,"internal_node_id":"0.0-15.0","subject":1688676621999,"condition":"conditionC"},{"init_locations":[{"src":"http://34.125.186.26/images/9_1.jpg","x":317,"y":111},{"src":"http://34.125.186.26/images/9_2.jpg","x":478,"y":111},{"src":"http://34.125.186.26/images/9_3.jpg","x":638,"y":111},{"src":"http://34.125.186.26/images/9_4.jpg","x":799,"y":111}],"moves":[],"final_locations":[{}],"stars_time":[16528.600000023842],"end_time":[16717.19999998808],"rt":188.5999999642372,"trial_type":"order","trial_index":16,"time_elapsed":16122,"internal_node_id":"0.0-16.0","subject":1688676621999,"condition":"conditionC"},{"init_locations":[{"src":"http://34.125.186.26/images/9_5.jpg","x":317,"y":111},{"src":"http://34.125.186.26/images/9_6.jpg","x":478,"y":111},{"src":"http://34.125.186.26/images/9_7.jpg","x":638,"y":111},{"src":"http://34.125.186.26/images/9_8.jpg","x":799,"y":111}],"moves":[],"final_locations":[{}],"stars_time":[16718.19999998808],"end_time":[16900.30000001192],"rt":182.10000002384186,"trial_type":"order","trial_index":17,"time_elapsed":16306,"internal_node_id":"0.0-17.0","subject":1688676621999,"condition":"conditionC"},{"rt":1374.199999988079,"stimulus":"<p>How difficult was it to order the pictures?</p>","button_pressed":"2","trial_type":"html-button-response","trial_index":18,"time_elapsed":17681,"internal_node_id":"0.0-18.0","subject":1688676621999,"condition":"conditionC"}]