[{"init_locations":[{"src":"http://34.125.186.26/images/1_1.jpg","x":317,"y":103},{"src":"http://34.125.186.26/images/1_2.jpg","x":478,"y":103},{"src":"http://34.125.186.26/images/1_3.jpg","x":640,"y":103},{"src":"http://34.125.186.26/images/1_4.jpg","x":801,"y":103}],"moves":[{"src":"http://34.125.186.26/images/1_3.jpg","x":640,"y":341,"move_time":1415.1000000238419},{"src":"http://34.125.186.26/images/1_2.jpg","x":478,"y":341,"move_time":922.3000000119209}],"final_locations":[{"final":{"src":"http://34.125.186.26/images/1_2.jpg","x":478,"y":341,"move_time":922.3000000119209}}],"stars_time":[792.5999999642372],"end_time":[17848.899999976158],"rt":17056.30000001192,"trial_type":"order","trial_index":0,"time_elapsed":17060,"internal_node_id":"0.0-0.0","subject":1688674611354,"condition":"conditionA"},{"init_locations":[{"src":"http://34.125.186.26/images/1_5.jpg","x":40,"y":91},{"src":"http://34.125.186.26/images/1_6.jpg","x":201,"y":91},{"src":"http://34.125.186.26/images/1_7.jpg","x":362,"y":91},{"src":"http://34.125.186.26/images/1_8.jpg","x":524,"y":91}],"moves":[],"final_locations":[{}],"stars_time":[17850.599999964237],"end_time":[18040.599999964237],"rt":190,"trial_type":"order","trial_index":1,"time_elapsed":17252,"internal_node_id":"0.0-1.0","subject":1688674611354,"condition":"conditionA"},{"init_locations":[{"src":"http://34.125.186.26/images/2_1.jpg","x":40,"y":91},{"src":"http://34.125.186.26/images/2_2.jpg","x":201,"y":91},{"src":"http://34.125.186.26/images/2_3.jpg","x":362,"y":91},{"src":"http://34.125.186.26/images/2_4.jpg","x":524,"y":91}],"moves":[],"final_locations":[{}],"stars_time":[18042.19999998808],"end_time":[18267.899999976158],"rt":225.69999998807907,"trial_type":"order","trial_index":2,"time_elapsed":17479,"internal_node_id":"0.0-2.0","subject":1688674611354,"condition":"conditionA"},{"init_locations":[{"src":"http://34.125.186.26/images/2_5.jpg","x":40,"y":91},{"src":"http://34.125.186.26/images/2_6.jpg","x":201,"y":91},{"src":"http://34.125.186.26/images/2_7.jpg","x":362,"y":91},{"src":"http://34.125.186.26/images/2_8.jpg","x":524,"y":91}],"moves":[],"final_locations":[{}],"stars_time":[18268.899999976158],"end_time":[18476],"rt":207.10000002384186,"trial_type":"order","trial_index":3,"time_elapsed":17687,"internal_node_id":"0.0-3.0","subject":1688674611354,"condition":"conditionA"},{"init_locations":[{"src":"http://34.125.186.26/images/3_1.jpg","x":40,"y":91},{"src":"http://34.125.186.26/images/3_2.jpg","x":201,"y":91},{"src":"http://34.125.186.26/images/3_3.jpg","x":362,"y":91},{"src":"http://34.125.186.26/images/3_4.jpg","x":524,"y":91}],"moves":[],"final_locations":[{}],"stars_time":[18480.099999964237],"end_time":[18684.69999998808],"rt":204.60000002384186,"trial_type":"order","trial_index":4,"time_elapsed":17896,"internal_node_id":"0.0-4.0","subject":1688674611354,"condition":"conditionA"},{"init_locations":[{"src":"http://34.125.186.26/images/3_5.jpg","x":40,"y":91},{"src":"http://34.125.186.26/images/3_6.jpg","x":201,"y":91},{"src":"http://34.125.186.26/images/3_7.jpg","x":362,"y":91},{"src":"http://34.125.186.26/images/3_8.jpg","x":524,"y":91}],"moves":[],"final_locations":[{}],"stars_time":[18686.099999964237],"end_time":[18891.399999976158],"rt":205.30000001192093,"trial_type":"order","trial_index":5,"time_elapsed":18103,"internal_node_id":"0.0-5.0","subject":1688674611354,"condition":"conditionA"},{"init_locations":[{"src":"http://34.125.186.26/images/4_1.jpg","x":40,"y":91},{"src":"http://34.125.186.26/images/4_2.jpg","x":201,"y":91},{"src":"http://34.125.186.26/images/4_3.jpg","x":362,"y":91},{"src":"http://34.125.186.26/images/4_4.jpg","x":524,"y":91}],"moves":[],"final_locations":[{}],"stars_time":[18892.30000001192],"end_time":[19115.899999976158],"rt":223.5999999642372,"trial_type":"order","trial_index":6,"time_elapsed":18328,"internal_node_id":"0.0-6.0","subject":1688674611354,"condition":"conditionA"},{"init_locations":[{"src":"http://34.125.186.26/images/4_5.jpg","x":40,"y":91},{"src":"http://34.125.186.26/images/4_6.jpg","x":201,"y":91},{"src":"http://34.125.186.26/images/4_7.jpg","x":362,"y":91},{"src":"http://34.125.186.26/images/4_8.jpg","x":524,"y":91}],"moves":[],"final_locations":[{}],"stars_time":[19117.69999998808],"end_time":[19323.899999976158],"rt":206.19999998807907,"trial_type":"order","trial_index":7,"time_elapsed":18535,"internal_node_id":"0.0-7.0","subject":1688674611354,"condition":"conditionA"},{"init_locations":[{"src":"http://34.125.186.26/images/5_1.jpg","x":40,"y":91},{"src":"http://34.125.186.26/images/5_2.jpg","x":201,"y":91},{"src":"http://34.125.186.26/images/5_3.jpg","x":362,"y":91},{"src":"http://34.125.186.26/images/5_4.jpg","x":524,"y":91}],"moves":[],"final_locations":[{}],"stars_time":[19324.80000001192],"end_time":[19531.5],"rt":206.69999998807907,"trial_type":"order","trial_index":8,"time_elapsed":18743,"internal_node_id":"0.0-8.0","subject":1688674611354,"condition":"conditionA"},{"init_locations":[{"src":"http://34.125.186.26/images/5_5.jpg","x":40,"y":91},{"src":"http://34.125.186.26/images/5_6.jpg","x":201,"y":91},{"src":"http://34.125.186.26/images/5_7.jpg","x":362,"y":91},{"src":"http://34.125.186.26/images/5_8.jpg","x":524,"y":91}],"moves":[],"final_locations":[{}],"stars_time":[19532.69999998808],"end_time":[19723.599999964237],"rt":190.89999997615814,"trial_type":"order","trial_index":9,"time_elapsed":18935,"internal_node_id":"0.0-9.0","subject":1688674611354,"condition":"conditionA"},{"init_locations":[{"src":"http://34.125.186.26/images/6_1.jpg","x":40,"y":91},{"src":"http://34.125.186.26/images/6_2.jpg","x":201,"y":91},{"src":"http://34.125.186.26/images/6_3.jpg","x":362,"y":91},{"src":"http://34.125.186.26/images/6_4.jpg","x":524,"y":91}],"moves":[],"final_locations":[{}],"stars_time":[19724.599999964237],"end_time":[19931.399999976158],"rt":206.80000001192093,"trial_type":"order","trial_index":10,"time_elapsed":19143,"internal_node_id":"0.0-10.0","subject":1688674611354,"condition":"conditionA"},{"init_locations":[{"src":"http://34.125.186.26/images/6_5.jpg","x":40,"y":91},{"src":"http://34.125.186.26/images/6_6.jpg","x":201,"y":91},{"src":"http://34.125.186.26/images/6_7.jpg","x":362,"y":91},{"src":"http://34.125.186.26/images/6_8.jpg","x":524,"y":91}],"moves":[],"final_locations":[{}],"stars_time":[19932.099999964237],"end_time":[20139.899999976158],"rt":207.80000001192093,"trial_type":"order","trial_index":11,"time_elapsed":19351,"internal_node_id":"0.0-11.0","subject":1688674611354,"condition":"conditionA"},{"init_locations":[{"src":"http://34.125.186.26/images/7_1.jpg","x":40,"y":91},{"src":"http://34.125.186.26/images/7_2.jpg","x":201,"y":91},{"src":"http://34.125.186.26/images/7_3.jpg","x":362,"y":91},{"src":"http://34.125.186.26/images/7_4.jpg","x":524,"y":91}],"moves":[],"final_locations":[{}],"stars_time":[20141.099999964237],"end_time":[20348.30000001192],"rt":207.20000004768372,"trial_type":"order","trial_index":12,"time_elapsed":19560,"internal_node_id":"0.0-12.0","subject":1688674611354,"condition":"conditionA"},{"init_locations":[{"src":"http://34.125.186.26/images/7_5.jpg","x":40,"y":91},{"src":"http://34.125.186.26/images/7_6.jpg","x":201,"y":91},{"src":"http://34.125.186.26/images/7_7.jpg","x":362,"y":91},{"src":"http://34.125.186.26/images/7_8.jpg","x":524,"y":91}],"moves":[],"final_locations":[{}],"stars_time":[20349.5],"end_time":[20539.69999998808],"rt":190.19999998807907,"trial_type":"order","trial_index":13,"time_elapsed":19751,"internal_node_id":"0.0-13.0","subject":1688674611354,"condition":"conditionA"},{"init_locations":[{"src":"http://34.125.186.26/images/8_1.jpg","x":40,"y":91},{"src":"http://34.125.186.26/images/8_2.jpg","x":201,"y":91},{"src":"http://34.125.186.26/images/8_3.jpg","x":362,"y":91},{"src":"http://34.125.186.26/images/8_4.jpg","x":524,"y":91}],"moves":[],"final_locations":[{}],"stars_time":[20540.5],"end_time":[20747.399999976158],"rt":206.89999997615814,"trial_type":"order","trial_index":14,"time_elapsed":19959,"internal_node_id":"0.0-14.0","subject":1688674611354,"condition":"conditionA"},{"init_locations":[{"src":"http://34.125.186.26/images/8_5.jpg","x":40,"y":91},{"src":"http://34.125.186.26/images/8_6.jpg","x":201,"y":91},{"src":"http://34.125.186.26/images/8_7.jpg","x":362,"y":91},{"src":"http://34.125.186.26/images/8_8.jpg","x":524,"y":91}],"moves":[],"final_locations":[{}],"stars_time":[20748.30000001192],"end_time":[20971.69999998808],"rt":223.39999997615814,"trial_type":"order","trial_index":15,"time_elapsed":20183,"internal_node_id":"0.0-15.0","subject":1688674611354,"condition":"conditionA"},{"init_locations":[{"src":"http://34.125.186.26/images/9_1.jpg","x":40,"y":91},{"src":"http://34.125.186.26/images/9_2.jpg","x":201,"y":91},{"src":"http://34.125.186.26/images/9_3.jpg","x":362,"y":91},{"src":"http://34.125.186.26/images/9_4.jpg","x":524,"y":91}],"moves":[],"final_locations":[{}],"stars_time":[20972.80000001192],"end_time":[21167.599999964237],"rt":194.79999995231628,"trial_type":"order","trial_index":16,"time_elapsed":20379,"internal_node_id":"0.0-16.0","subject":1688674611354,"condition":"conditionA"},{"init_locations":[{"src":"http://34.125.186.26/images/9_5.jpg","x":40,"y":91},{"src":"http://34.125.186.26/images/9_6.jpg","x":201,"y":91},{"src":"http://34.125.186.26/images/9_7.jpg","x":362,"y":91},{"src":"http://34.125.186.26/images/9_8.jpg","x":524,"y":91}],"moves":[],"final_locations":[{}],"stars_time":[21168.599999964237],"end_time":[21359.69999998808],"rt":191.10000002384186,"trial_type":"order","trial_index":17,"time_elapsed":20571,"internal_node_id":"0.0-17.0","subject":1688674611354,"condition":"conditionA"},{"rt":1086.7000000476837,"stimulus":"<p>How difficult was it to order the pictures?</p>","button_pressed":"2","trial_type":"html-button-response","trial_index":18,"time_elapsed":21660,"internal_node_id":"0.0-18.0","subject":1688674611354,"condition":"conditionA"}]