[{"init_locations":[{"src":"http://34.125.186.26/images/1_1.jpg","x":40,"y":103},{"src":"http://34.125.186.26/images/1_2.jpg","x":201,"y":103},{"src":"http://34.125.186.26/images/1_3.jpg","x":362,"y":103},{"src":"http://34.125.186.26/images/1_4.jpg","x":524,"y":103}],"moves":[{"src":"http://34.125.186.26/images/1_2.jpg","x":201,"y":341,"move_time":4507.5},{"src":"http://34.125.186.26/images/1_1.jpg","x":40,"y":341,"move_time":2561},{"src":"http://34.125.186.26/images/1_3.jpg","x":362,"y":341,"move_time":994.6999999880791},{"src":"http://34.125.186.26/images/1_4.jpg","x":524,"y":341,"move_time":1007.9000000357628}],"final_locations":[{"final":{"src":"http://34.125.186.26/images/1_4.jpg","x":524,"y":341,"move_time":1007.9000000357628}}],"stars_time":[761.0999999642372],"end_time":[11222.199999988079],"rt":10461.100000023842,"trial_type":"order","trial_index":0,"time_elapsed":10465,"internal_node_id":"0.0-0.0","subject":1688772625286,"condition":"conditionA"},{"init_locations":[{"src":"http://34.125.186.26/images/1_5.jpg","x":40,"y":91},{"src":"http://34.125.186.26/images/1_6.jpg","x":201,"y":91},{"src":"http://34.125.186.26/images/1_7.jpg","x":362,"y":91},{"src":"http://34.125.186.26/images/1_8.jpg","x":524,"y":91}],"moves":[],"final_locations":[{}],"stars_time":[11223.5],"end_time":[11413.899999976158],"rt":190.39999997615814,"trial_type":"order","trial_index":1,"time_elapsed":10657,"internal_node_id":"0.0-1.0","subject":1688772625286,"condition":"conditionA"},{"init_locations":[{"src":"http://34.125.186.26/images/2_1.jpg","x":40,"y":91},{"src":"http://34.125.186.26/images/2_2.jpg","x":201,"y":91},{"src":"http://34.125.186.26/images/2_3.jpg","x":362,"y":91},{"src":"http://34.125.186.26/images/2_4.jpg","x":524,"y":91}],"moves":[],"final_locations":[{}],"stars_time":[11415],"end_time":[11605.599999964237],"rt":190.5999999642372,"trial_type":"order","trial_index":2,"time_elapsed":10848,"internal_node_id":"0.0-2.0","subject":1688772625286,"condition":"conditionA"},{"init_locations":[{"src":"http://34.125.186.26/images/2_5.jpg","x":40,"y":91},{"src":"http://34.125.186.26/images/2_6.jpg","x":201,"y":91},{"src":"http://34.125.186.26/images/2_7.jpg","x":362,"y":91},{"src":"http://34.125.186.26/images/2_8.jpg","x":524,"y":91}],"moves":[],"final_locations":[{}],"stars_time":[11606.199999988079],"end_time":[11813.799999952316],"rt":207.5999999642372,"trial_type":"order","trial_index":3,"time_elapsed":11056,"internal_node_id":"0.0-3.0","subject":1688772625286,"condition":"conditionA"},{"init_locations":[{"src":"http://34.125.186.26/images/3_1.jpg","x":40,"y":91},{"src":"http://34.125.186.26/images/3_2.jpg","x":201,"y":91},{"src":"http://34.125.186.26/images/3_3.jpg","x":362,"y":91},{"src":"http://34.125.186.26/images/3_4.jpg","x":524,"y":91}],"moves":[],"final_locations":[{}],"stars_time":[11814.399999976158],"end_time":[12005.599999964237],"rt":191.19999998807907,"trial_type":"order","trial_index":4,"time_elapsed":11248,"internal_node_id":"0.0-4.0","subject":1688772625286,"condition":"conditionA"},{"init_locations":[{"src":"http://34.125.186.26/images/3_5.jpg","x":40,"y":91},{"src":"http://34.125.186.26/images/3_6.jpg","x":201,"y":91},{"src":"http://34.125.186.26/images/3_7.jpg","x":362,"y":91},{"src":"http://34.125.186.26/images/3_8.jpg","x":524,"y":91}],"moves":[],"final_locations":[{}],"stars_time":[12006.399999976158],"end_time":[12213.799999952316],"rt":207.39999997615814,"trial_type":"order","trial_index":5,"time_elapsed":11456,"internal_node_id":"0.0-5.0","subject":1688772625286,"condition":"conditionA"},{"init_locations":[{"src":"http://34.125.186.26/images/4_1.jpg","x":40,"y":91},{"src":"http://34.125.186.26/images/4_2.jpg","x":201,"y":91},{"src":"http://34.125.186.26/images/4_3.jpg","x":362,"y":91},{"src":"http://34.125.186.26/images/4_4.jpg","x":524,"y":91}],"moves":[],"final_locations":[{}],"stars_time":[12214.799999952316],"end_time":[12422.099999964237],"rt":207.30000001192093,"trial_type":"order","trial_index":6,"time_elapsed":11665,"internal_node_id":"0.0-6.0","subject":1688772625286,"condition":"conditionA"},{"init_locations":[{"src":"http://34.125.186.26/images/4_5.jpg","x":40,"y":91},{"src":"http://34.125.186.26/images/4_6.jpg","x":201,"y":91},{"src":"http://34.125.186.26/images/4_7.jpg","x":362,"y":91},{"src":"http://34.125.186.26/images/4_8.jpg","x":524,"y":91}],"moves":[],"final_locations":[{}],"stars_time":[12423],"end_time":[12635.899999976158],"rt":212.89999997615814,"trial_type":"order","trial_index":7,"time_elapsed":11878,"internal_node_id":"0.0-7.0","subject":1688772625286,"condition":"conditionA"},{"init_locations":[{"src":"http://34.125.186.26/images/5_1.jpg","x":40,"y":91},{"src":"http://34.125.186.26/images/5_2.jpg","x":201,"y":91},{"src":"http://34.125.186.26/images/5_3.jpg","x":362,"y":91},{"src":"http://34.125.186.26/images/5_4.jpg","x":524,"y":91}],"moves":[],"final_locations":[{}],"stars_time":[12636.699999988079],"end_time":[12841.699999988079],"rt":205,"trial_type":"order","trial_index":8,"time_elapsed":12084,"internal_node_id":"0.0-8.0","subject":1688772625286,"condition":"conditionA"},{"init_locations":[{"src":"http://34.125.186.26/images/5_5.jpg","x":40,"y":91},{"src":"http://34.125.186.26/images/5_6.jpg","x":201,"y":91},{"src":"http://34.125.186.26/images/5_7.jpg","x":362,"y":91},{"src":"http://34.125.186.26/images/5_8.jpg","x":524,"y":91}],"moves":[],"final_locations":[{}],"stars_time":[12842.399999976158],"end_time":[13065.799999952316],"rt":223.39999997615814,"trial_type":"order","trial_index":9,"time_elapsed":12308,"internal_node_id":"0.0-9.0","subject":1688772625286,"condition":"conditionA"},{"init_locations":[{"src":"http://34.125.186.26/images/6_1.jpg","x":40,"y":91},{"src":"http://34.125.186.26/images/6_2.jpg","x":201,"y":91},{"src":"http://34.125.186.26/images/6_3.jpg","x":362,"y":91},{"src":"http://34.125.186.26/images/6_4.jpg","x":524,"y":91}],"moves":[],"final_locations":[{}],"stars_time":[13066.399999976158],"end_time":[13274.099999964237],"rt":207.69999998807907,"trial_type":"order","trial_index":10,"time_elapsed":12517,"internal_node_id":"0.0-10.0","subject":1688772625286,"condition":"conditionA"},{"init_locations":[{"src":"http://34.125.186.26/images/6_5.jpg","x":40,"y":91},{"src":"http://34.125.186.26/images/6_6.jpg","x":201,"y":91},{"src":"http://34.125.186.26/images/6_7.jpg","x":362,"y":91},{"src":"http://34.125.186.26/images/6_8.jpg","x":524,"y":91}],"moves":[],"final_locations":[{}],"stars_time":[13274.899999976158],"end_time":[13481.699999988079],"rt":206.80000001192093,"trial_type":"order","trial_index":11,"time_elapsed":12724,"internal_node_id":"0.0-11.0","subject":1688772625286,"condition":"conditionA"},{"init_locations":[{"src":"http://34.125.186.26/images/7_1.jpg","x":40,"y":91},{"src":"http://34.125.186.26/images/7_2.jpg","x":201,"y":91},{"src":"http://34.125.186.26/images/7_3.jpg","x":362,"y":91},{"src":"http://34.125.186.26/images/7_4.jpg","x":524,"y":91}],"moves":[],"final_locations":[{}],"stars_time":[13482.299999952316],"end_time":[13706.199999988079],"rt":223.9000000357628,"trial_type":"order","trial_index":12,"time_elapsed":12949,"internal_node_id":"0.0-12.0","subject":1688772625286,"condition":"conditionA"},{"init_locations":[{"src":"http://34.125.186.26/images/7_5.jpg","x":40,"y":91},{"src":"http://34.125.186.26/images/7_6.jpg","x":201,"y":91},{"src":"http://34.125.186.26/images/7_7.jpg","x":362,"y":91},{"src":"http://34.125.186.26/images/7_8.jpg","x":524,"y":91}],"moves":[],"final_locations":[{}],"stars_time":[13707.099999964237],"end_time":[13945.599999964237],"rt":238.5,"trial_type":"order","trial_index":13,"time_elapsed":13188,"internal_node_id":"0.0-13.0","subject":1688772625286,"condition":"conditionA"},{"init_locations":[{"src":"http://34.125.186.26/images/8_1.jpg","x":40,"y":91},{"src":"http://34.125.186.26/images/8_2.jpg","x":201,"y":91},{"src":"http://34.125.186.26/images/8_3.jpg","x":362,"y":91},{"src":"http://34.125.186.26/images/8_4.jpg","x":524,"y":91}],"moves":[],"final_locations":[{}],"stars_time":[13946.199999988079],"end_time":[14169.899999976158],"rt":223.69999998807907,"trial_type":"order","trial_index":14,"time_elapsed":13412,"internal_node_id":"0.0-14.0","subject":1688772625286,"condition":"conditionA"},{"init_locations":[{"src":"http://34.125.186.26/images/8_5.jpg","x":40,"y":91},{"src":"http://34.125.186.26/images/8_6.jpg","x":201,"y":91},{"src":"http://34.125.186.26/images/8_7.jpg","x":362,"y":91},{"src":"http://34.125.186.26/images/8_8.jpg","x":524,"y":91}],"moves":[],"final_locations":[{}],"stars_time":[14170.399999976158],"end_time":[14378],"rt":207.60000002384186,"trial_type":"order","trial_index":15,"time_elapsed":13621,"internal_node_id":"0.0-15.0","subject":1688772625286,"condition":"conditionA"},{"init_locations":[{"src":"http://34.125.186.26/images/9_1.jpg","x":40,"y":91},{"src":"http://34.125.186.26/images/9_2.jpg","x":201,"y":91},{"src":"http://34.125.186.26/images/9_3.jpg","x":362,"y":91},{"src":"http://34.125.186.26/images/9_4.jpg","x":524,"y":91}],"moves":[],"final_locations":[{}],"stars_time":[14379],"end_time":[14585.599999964237],"rt":206.5999999642372,"trial_type":"order","trial_index":16,"time_elapsed":13828,"internal_node_id":"0.0-16.0","subject":1688772625286,"condition":"conditionA"},{"init_locations":[{"src":"http://34.125.186.26/images/9_5.jpg","x":40,"y":91},{"src":"http://34.125.186.26/images/9_6.jpg","x":201,"y":91},{"src":"http://34.125.186.26/images/9_7.jpg","x":362,"y":91},{"src":"http://34.125.186.26/images/9_8.jpg","x":524,"y":91}],"moves":[],"final_locations":[{}],"stars_time":[14586.5],"end_time":[14809.799999952316],"rt":223.29999995231628,"trial_type":"order","trial_index":17,"time_elapsed":14052,"internal_node_id":"0.0-17.0","subject":1688772625286,"condition":"conditionA"},{"rt":1139.3999999761581,"stimulus":"<p>How difficult was it to order the pictures?</p>","button_pressed":"2","trial_type":"html-button-response","trial_index":18,"time_elapsed":15193,"internal_node_id":"0.0-18.0","subject":1688772625286,"condition":"conditionA"}]