[{"view_history":"[{\"page_index\":0,\"viewing_time\":1570.699999988079},{\"page_index\":1,\"viewing_time\":455.60000002384186},{\"page_index\":2,\"viewing_time\":224}]","rt":2250.600000023842,"trial_type":"instructions","trial_index":0,"time_elapsed":2252,"internal_node_id":"0.0-0.0","subject":"7.7.2023, 23:24:02","condition":"conditionC"},{"init_locations":[{"src":"http://34.125.186.26/images/test_3.jpg","x":317,"y":87},{"src":"http://34.125.186.26/images/test_4.jpg","x":478,"y":87},{"src":"http://34.125.186.26/images/test_1.jpg","x":640,"y":87},{"src":"http://34.125.186.26/images/test_2.jpg","x":801,"y":87}],"moves":[],"final_locations":[{}],"stars_time":[2815.100000023842],"end_time":[4743.300000011921],"rt":1928.199999988079,"trial_type":"order","trial_index":1,"time_elapsed":4182,"internal_node_id":"0.0-1.0","subject":"7.7.2023, 23:24:02","condition":"conditionC"},{"view_history":"[{\"page_index\":0,\"viewing_time\":1181.199999988079}]","rt":1181.3999999761581,"trial_type":"instructions","trial_index":2,"time_elapsed":5364,"internal_node_id":"0.0-2.0","subject":"7.7.2023, 23:24:02","condition":"conditionC"},{"init_locations":[{"src":"http://34.125.186.26/images/2_5.jpg","x":317,"y":87},{"src":"http://34.125.186.26/images/2_6.jpg","x":478,"y":87},{"src":"http://34.125.186.26/images/2_7.jpg","x":640,"y":87},{"src":"http://34.125.186.26/images/2_8.jpg","x":801,"y":87}],"moves":[{"src":"http://34.125.186.26/images/2_7.jpg","x":640,"y":325,"move_time":1786.199999988079}],"final_locations":[{"final":{"src":"http://34.125.186.26/images/2_7.jpg","x":640,"y":325,"move_time":1786.199999988079}}],"stars_time":[5926.700000047684],"end_time":[9221.800000011921],"rt":3295.099999964237,"trial_type":"order","trial_index":3,"time_elapsed":8660,"internal_node_id":"0.0-3.0","subject":"7.7.2023, 23:24:02","condition":"conditionC"},{"rt":1319.699999988079,"stimulus":"<p>How difficult was it to order the pictures?</p>","button_pressed":"3","trial_type":"html-button-response","trial_index":4,"time_elapsed":9981,"internal_node_id":"0.0-4.0","subject":"7.7.2023, 23:24:02","condition":"conditionC"},{"rt":807.9000000357628,"responses":"{\"Q0\":\"\"}","trial_type":"survey-text","trial_index":5,"time_elapsed":10801,"internal_node_id":"0.0-5.0","subject":"7.7.2023, 23:24:02","condition":"conditionC"},{"init_locations":[{"src":"http://34.125.186.26/images/7_1.jpg","x":317,"y":87},{"src":"http://34.125.186.26/images/7_2.jpg","x":478,"y":87},{"src":"http://34.125.186.26/images/7_4.jpg","x":640,"y":87},{"src":"http://34.125.186.26/images/7_3.jpg","x":801,"y":87}],"moves":[{"src":"http://34.125.186.26/images/7_2.jpg","x":478,"y":325,"move_time":1319.300000011921}],"final_locations":[{"final":{"src":"http://34.125.186.26/images/7_2.jpg","x":478,"y":325,"move_time":1319.300000011921}}],"stars_time":[11363],"end_time":[13410.100000023842],"rt":2047.1000000238419,"trial_type":"order","trial_index":6,"time_elapsed":12848,"internal_node_id":"0.0-6.0","subject":"7.7.2023, 23:24:02","condition":"conditionC"}]