[{"view_history":"[{\"page_index\":0,\"viewing_time\":1579.699999988079},{\"page_index\":1,\"viewing_time\":772},{\"page_index\":2,\"viewing_time\":487}]","rt":2839,"trial_type":"instructions","trial_index":0,"time_elapsed":2843,"internal_node_id":"0.0-0.0","subject":1688785788457,"condition":"conditionC"},{"init_locations":[{"src":"http://34.125.186.26/images/test_3.jpg","x":317,"y":87},{"src":"http://34.125.186.26/images/test_4.jpg","x":478,"y":87},{"src":"http://34.125.186.26/images/test_1.jpg","x":640,"y":87},{"src":"http://34.125.186.26/images/test_2.jpg","x":801,"y":87}],"moves":[{"src":"http://34.125.186.26/images/test_1.jpg","x":640,"y":325,"move_time":1279.699999988079},{"src":"http://34.125.186.26/images/test_4.jpg","x":478,"y":325,"move_time":897.3000000119209}],"final_locations":[{"final":{"src":"http://34.125.186.26/images/test_4.jpg","x":478,"y":325,"move_time":897.3000000119209}}],"stars_time":[3445.399999976158],"end_time":[6384.5],"rt":2939.100000023842,"trial_type":"order","trial_index":1,"time_elapsed":5783,"internal_node_id":"0.0-1.0","subject":1688785788457,"condition":"conditionC"},{"view_history":"[{\"page_index\":0,\"viewing_time\":1295.5999999642372}]","rt":1295.800000011921,"trial_type":"instructions","trial_index":2,"time_elapsed":7080,"internal_node_id":"0.0-2.0","subject":1688785788457,"condition":"conditionC"},{"init_locations":[{"src":"http://34.125.186.26/images/2_5.jpg","x":317,"y":87},{"src":"http://34.125.186.26/images/2_6.jpg","x":478,"y":87},{"src":"http://34.125.186.26/images/2_7.jpg","x":640,"y":87},{"src":"http://34.125.186.26/images/2_8.jpg","x":801,"y":87}],"moves":[{"src":"http://34.125.186.26/images/2_7.jpg","x":640,"y":325,"move_time":1066.7999999523163},{"src":"http://34.125.186.26/images/2_6.jpg","x":478,"y":325,"move_time":753.8000000119209}],"final_locations":[{"final":{"src":"http://34.125.186.26/images/2_6.jpg","x":478,"y":325,"move_time":753.8000000119209}}],"stars_time":[7681.800000011921],"end_time":[10340.599999964237],"rt":2658.7999999523163,"trial_type":"order","trial_index":3,"time_elapsed":9739,"internal_node_id":"0.0-3.0","subject":1688785788457,"condition":"conditionC"},{"rt":1138.5999999642372,"stimulus":"<p>How difficult was it to order the pictures?</p>","button_pressed":"3","trial_type":"html-button-response","trial_index":4,"time_elapsed":10880,"internal_node_id":"0.0-4.0","subject":1688785788457,"condition":"conditionC"},{"rt":1887.699999988079,"responses":"{\"Q0\":\"\"}","trial_type":"survey-text","trial_index":5,"time_elapsed":12776,"internal_node_id":"0.0-5.0","subject":1688785788457,"condition":"conditionC"},{"init_locations":[{"src":"http://34.125.186.26/images/7_1.jpg","x":317,"y":87},{"src":"http://34.125.186.26/images/7_2.jpg","x":478,"y":87},{"src":"http://34.125.186.26/images/7_4.jpg","x":640,"y":87},{"src":"http://34.125.186.26/images/7_3.jpg","x":801,"y":87}],"moves":[{"src":"http://34.125.186.26/images/7_4.jpg","x":478,"y":325,"move_time":1179.1000000238419}],"final_locations":[{"final":{"src":"http://34.125.186.26/images/7_4.jpg","x":478,"y":325,"move_time":1179.1000000238419}}],"stars_time":[13378.599999964237],"end_time":[15480.599999964237],"rt":2102,"trial_type":"order","trial_index":6,"time_elapsed":14879,"internal_node_id":"0.0-6.0","subject":1688785788457,"condition":"conditionC"}]