[{"view_history":"[{\"page_index\":0,\"viewing_time\":987.5},{\"page_index\":1,\"viewing_time\":463.7000000476837},{\"page_index\":2,\"viewing_time\":464.69999998807907}]","rt":1916.1000000238419,"trial_type":"instructions","trial_index":0,"time_elapsed":1920,"internal_node_id":"0.0-0.0","subject":1688777245602,"condition":"conditionA"},{"init_locations":[{"src":"http://34.125.186.26/images/test_3.jpg","x":40,"y":103},{"src":"http://34.125.186.26/images/test_4.jpg","x":201,"y":103},{"src":"http://34.125.186.26/images/test_1.jpg","x":362,"y":103},{"src":"http://34.125.186.26/images/test_2.jpg","x":524,"y":103}],"moves":[{"src":"http://34.125.186.26/images/test_1.jpg","x":40,"y":341,"move_time":12337.600000023842},{"src":"http://34.125.186.26/images/test_2.jpg","x":201,"y":341,"move_time":3889.600000023842},{"src":"http://34.125.186.26/images/test_4.jpg","x":524,"y":341,"move_time":3630.099999964237},{"src":"http://34.125.186.26/images/test_3.jpg","x":362,"y":341,"move_time":1602.4000000357628}],"final_locations":[{"final":{"src":"http://34.125.186.26/images/test_3.jpg","x":362,"y":341,"move_time":1602.4000000357628}}],"stars_time":[2803.399999976158],"end_time":[25250.100000023842],"rt":22446.700000047684,"trial_type":"order","trial_index":1,"time_elapsed":24368,"internal_node_id":"0.0-1.0","subject":1688777245602,"condition":"conditionA"},{"view_history":"[{\"page_index\":0,\"viewing_time\":1091.1000000238419}]","rt":1091.5,"trial_type":"instructions","trial_index":2,"time_elapsed":25460,"internal_node_id":"0.0-2.0","subject":1688777245602,"condition":"conditionA"},{"init_locations":[{"src":"http://34.125.186.26/images/2_5.jpg","x":40,"y":103},{"src":"http://34.125.186.26/images/2_6.jpg","x":201,"y":103},{"src":"http://34.125.186.26/images/2_7.jpg","x":362,"y":103},{"src":"http://34.125.186.26/images/2_8.jpg","x":524,"y":103}],"moves":[],"final_locations":[{}],"stars_time":[26342.80000001192],"end_time":[27917.899999976158],"rt":1575.0999999642372,"trial_type":"order","trial_index":3,"time_elapsed":27036,"internal_node_id":"0.0-3.0","subject":1688777245602,"condition":"conditionA"},{"rt":1459.0999999642372,"stimulus":"<p>How difficult was it to order the pictures?</p>","button_pressed":"4","trial_type":"html-button-response","trial_index":4,"time_elapsed":28497,"internal_node_id":"0.0-4.0","subject":1688777245602,"condition":"conditionA"},{"rt":27637.100000023842,"responses":"{\"Q0\":\"I saw that the cat eat the fish and then ran.\"}","trial_type":"survey-text","trial_index":5,"time_elapsed":56136,"internal_node_id":"0.0-5.0","subject":1688777245602,"condition":"conditionA"},{"init_locations":[{"src":"http://34.125.186.26/images/7_1.jpg","x":40,"y":103},{"src":"http://34.125.186.26/images/7_2.jpg","x":201,"y":103},{"src":"http://34.125.186.26/images/7_4.jpg","x":362,"y":103},{"src":"http://34.125.186.26/images/7_3.jpg","x":524,"y":103}],"moves":[],"final_locations":[{}],"stars_time":[57019.69999998808],"end_time":[59349.80000001192],"rt":2330.100000023842,"trial_type":"order","trial_index":6,"time_elapsed":58467,"internal_node_id":"0.0-6.0","subject":1688777245602,"condition":"conditionA"}]