[{"view_history":"[{\"page_index\":0,\"viewing_time\":1236},{\"page_index\":1,\"viewing_time\":552.1999999880791},{\"page_index\":2,\"viewing_time\":245.19999998807907}]","rt":2033.6000000238419,"trial_type":"instructions","trial_index":0,"time_elapsed":2038,"internal_node_id":"0.0-0.0","subject":1688774477663,"condition":"conditionC"},{"init_locations":[{"src":"http://34.125.186.26/images/test_3.jpg","x":40,"y":103},{"src":"http://34.125.186.26/images/test_4.jpg","x":201,"y":103},{"src":"http://34.125.186.26/images/test_1.jpg","x":362,"y":103},{"src":"http://34.125.186.26/images/test_2.jpg","x":524,"y":103}],"moves":[{"src":"http://34.125.186.26/images/test_1.jpg","x":362,"y":341,"move_time":1336.800000011921}],"final_locations":[{"final":{"src":"http://34.125.186.26/images/test_1.jpg","x":362,"y":341,"move_time":1336.800000011921}}],"stars_time":[2989],"end_time":[5602.800000011921],"rt":2613.800000011921,"trial_type":"order","trial_index":1,"time_elapsed":4652,"internal_node_id":"0.0-1.0","subject":1688774477663,"condition":"conditionC"},{"view_history":"[{\"page_index\":0,\"viewing_time\":1059.5}]","rt":1059.800000011921,"trial_type":"instructions","trial_index":2,"time_elapsed":5713,"internal_node_id":"0.0-2.0","subject":1688774477663,"condition":"conditionC"},{"init_locations":[{"src":"http://34.125.186.26/images/2_5.jpg","x":40,"y":103},{"src":"http://34.125.186.26/images/2_6.jpg","x":201,"y":103},{"src":"http://34.125.186.26/images/2_7.jpg","x":362,"y":103},{"src":"http://34.125.186.26/images/2_8.jpg","x":524,"y":103}],"moves":[{"src":"http://34.125.186.26/images/2_7.jpg","x":362,"y":341,"move_time":1125}],"final_locations":[{"final":{"src":"http://34.125.186.26/images/2_7.jpg","x":362,"y":341,"move_time":1125}}],"stars_time":[6663.700000047684],"end_time":[9354.400000035763],"rt":2690.699999988079,"trial_type":"order","trial_index":3,"time_elapsed":8404,"internal_node_id":"0.0-3.0","subject":1688774477663,"condition":"conditionC"},{"rt":1094.5,"stimulus":"<p>How difficult was it to order the pictures?</p>","button_pressed":"2","trial_type":"html-button-response","trial_index":4,"time_elapsed":9500,"internal_node_id":"0.0-4.0","subject":1688774477663,"condition":"conditionC"},{"rt":4518.5,"responses":"{\"Q0\":\"היי \\n\"}","trial_type":"survey-text","trial_index":5,"time_elapsed":14021,"internal_node_id":"0.0-5.0","subject":1688774477663,"condition":"conditionC"},{"init_locations":[{"src":"http://34.125.186.26/images/7_1.jpg","x":40,"y":103},{"src":"http://34.125.186.26/images/7_2.jpg","x":201,"y":103},{"src":"http://34.125.186.26/images/7_4.jpg","x":362,"y":103},{"src":"http://34.125.186.26/images/7_3.jpg","x":524,"y":103}],"moves":[{"src":"http://34.125.186.26/images/7_4.jpg","x":201,"y":341,"move_time":963.5}],"final_locations":[{"final":{"src":"http://34.125.186.26/images/7_4.jpg","x":201,"y":341,"move_time":963.5}}],"stars_time":[14972.300000011921],"end_time":[16814.600000023842],"rt":1842.300000011921,"trial_type":"order","trial_index":6,"time_elapsed":15864,"internal_node_id":"0.0-6.0","subject":1688774477663,"condition":"conditionC"}]