[{"view_history":"[{\"page_index\":0,\"viewing_time\":1707},{\"page_index\":1,\"viewing_time\":206.39999997615814},{\"page_index\":2,\"viewing_time\":240.70000004768372}]","rt":2154.399999976158,"trial_type":"instructions","trial_index":0,"time_elapsed":2157,"internal_node_id":"0.0-0.0","subject":"7.7.2023, 23:27:32","condition":"conditionC"},{"init_locations":[{"src":"http://34.125.186.26/images/test_3.jpg","x":309,"y":76},{"src":"http://34.125.186.26/images/test_4.jpg","x":470,"y":76},{"src":"http://34.125.186.26/images/test_1.jpg","x":631,"y":76},{"src":"http://34.125.186.26/images/test_2.jpg","x":793,"y":76}],"moves":[{"src":"http://34.125.186.26/images/test_1.jpg","x":631,"y":314,"move_time":1984.1000000238419}],"final_locations":[{"final":{"src":"http://34.125.186.26/images/test_1.jpg","x":631,"y":314,"move_time":1984.1000000238419}}],"stars_time":[2680.699999988079],"end_time":[6047.399999976158],"rt":3366.699999988079,"trial_type":"order","trial_index":1,"time_elapsed":5525,"internal_node_id":"0.0-1.0","subject":"7.7.2023, 23:27:32","condition":"conditionC"},{"view_history":"[{\"page_index\":0,\"viewing_time\":1135.5}]","rt":1135.8999999761581,"trial_type":"instructions","trial_index":2,"time_elapsed":6661,"internal_node_id":"0.0-2.0","subject":"7.7.2023, 23:27:32","condition":"conditionC"},{"init_locations":[{"src":"http://34.125.186.26/images/2_5.jpg","x":309,"y":76},{"src":"http://34.125.186.26/images/2_6.jpg","x":470,"y":76},{"src":"http://34.125.186.26/images/2_7.jpg","x":631,"y":76},{"src":"http://34.125.186.26/images/2_8.jpg","x":793,"y":76}],"moves":[{"src":"http://34.125.186.26/images/2_6.jpg","x":470,"y":314,"move_time":1270.800000011921}],"final_locations":[{"final":{"src":"http://34.125.186.26/images/2_6.jpg","x":470,"y":314,"move_time":1270.800000011921}}],"stars_time":[7184.699999988079],"end_time":[9379.5],"rt":2194.800000011921,"trial_type":"order","trial_index":3,"time_elapsed":8857,"internal_node_id":"0.0-3.0","subject":"7.7.2023, 23:27:32","condition":"conditionC"},{"rt":919.3999999761581,"stimulus":"<p>How difficult was it to order the pictures?</p>","button_pressed":"2","trial_type":"html-button-response","trial_index":4,"time_elapsed":9779,"internal_node_id":"0.0-4.0","subject":"7.7.2023, 23:27:32","condition":"conditionC"},{"rt":1184,"responses":"{\"Q0\":\"\"}","trial_type":"survey-text","trial_index":5,"time_elapsed":10970,"internal_node_id":"0.0-5.0","subject":"7.7.2023, 23:27:32","condition":"conditionC"},{"init_locations":[{"src":"http://34.125.186.26/images/7_1.jpg","x":309,"y":76},{"src":"http://34.125.186.26/images/7_2.jpg","x":470,"y":76},{"src":"http://34.125.186.26/images/7_4.jpg","x":631,"y":76},{"src":"http://34.125.186.26/images/7_3.jpg","x":793,"y":76}],"moves":[{"src":"http://34.125.186.26/images/7_2.jpg","x":470,"y":314,"move_time":1545.0999999642372}],"final_locations":[{"final":{"src":"http://34.125.186.26/images/7_2.jpg","x":470,"y":314,"move_time":1545.0999999642372}}],"stars_time":[11492.600000023842],"end_time":[14119.5],"rt":2626.899999976158,"trial_type":"order","trial_index":6,"time_elapsed":13597,"internal_node_id":"0.0-6.0","subject":"7.7.2023, 23:27:32","condition":"conditionC"}]