[{"init_locations":[{"src":"http://34.125.186.26/images/1_1.jpg","x":12,"y":76},{"src":"http://34.125.186.26/images/1_2.jpg","x":173,"y":76},{"src":"http://34.125.186.26/images/1_3.jpg","x":335,"y":76},{"src":"http://34.125.186.26/images/1_4.jpg","x":496,"y":76}],"moves":[{"src":"http://34.125.186.26/images/1_2.jpg","x":173,"y":314,"move_time":1208.1000000238419}],"final_locations":[{"final":{"src":"http://34.125.186.26/images/1_2.jpg","x":173,"y":314,"move_time":1208.1000000238419}}],"stars_time":[1035.300000011921],"end_time":[3000],"rt":1964.699999988079,"trial_type":"order","trial_index":0,"time_elapsed":1968,"internal_node_id":"0.0-0.0","subject":1688674714293,"condition":"conditionB"},{"init_locations":[{"src":"http://34.125.186.26/images/1_5.jpg","x":11,"y":76},{"src":"http://34.125.186.26/images/1_6.jpg","x":173,"y":76},{"src":"http://34.125.186.26/images/1_7.jpg","x":334,"y":76},{"src":"http://34.125.186.26/images/1_8.jpg","x":495,"y":76}],"moves":[],"final_locations":[{}],"stars_time":[3001.800000011921],"end_time":[3191.5],"rt":189.69999998807907,"trial_type":"order","trial_index":1,"time_elapsed":2159,"internal_node_id":"0.0-1.0","subject":1688674714293,"condition":"conditionB"},{"init_locations":[{"src":"http://34.125.186.26/images/2_1.jpg","x":11,"y":76},{"src":"http://34.125.186.26/images/2_2.jpg","x":173,"y":76},{"src":"http://34.125.186.26/images/2_3.jpg","x":334,"y":76},{"src":"http://34.125.186.26/images/2_4.jpg","x":495,"y":76}],"moves":[],"final_locations":[{}],"stars_time":[3194.300000011921],"end_time":[3383.5],"rt":189.19999998807907,"trial_type":"order","trial_index":2,"time_elapsed":2351,"internal_node_id":"0.0-2.0","subject":1688674714293,"condition":"conditionB"},{"init_locations":[{"src":"http://34.125.186.26/images/2_5.jpg","x":11,"y":76},{"src":"http://34.125.186.26/images/2_6.jpg","x":173,"y":76},{"src":"http://34.125.186.26/images/2_7.jpg","x":334,"y":76},{"src":"http://34.125.186.26/images/2_8.jpg","x":495,"y":76}],"moves":[],"final_locations":[{}],"stars_time":[3384.400000035763],"end_time":[3591.800000011921],"rt":207.39999997615814,"trial_type":"order","trial_index":3,"time_elapsed":2559,"internal_node_id":"0.0-3.0","subject":1688674714293,"condition":"conditionB"},{"init_locations":[{"src":"http://34.125.186.26/images/3_1.jpg","x":11,"y":76},{"src":"http://34.125.186.26/images/3_2.jpg","x":173,"y":76},{"src":"http://34.125.186.26/images/3_3.jpg","x":334,"y":76},{"src":"http://34.125.186.26/images/3_4.jpg","x":495,"y":76}],"moves":[],"final_locations":[{}],"stars_time":[3593.5],"end_time":[3799.600000023842],"rt":206.10000002384186,"trial_type":"order","trial_index":4,"time_elapsed":2767,"internal_node_id":"0.0-4.0","subject":1688674714293,"condition":"conditionB"},{"init_locations":[{"src":"http://34.125.186.26/images/3_5.jpg","x":11,"y":76},{"src":"http://34.125.186.26/images/3_6.jpg","x":173,"y":76},{"src":"http://34.125.186.26/images/3_7.jpg","x":334,"y":76},{"src":"http://34.125.186.26/images/3_8.jpg","x":495,"y":76}],"moves":[],"final_locations":[{}],"stars_time":[3800.800000011921],"end_time":[3995.699999988079],"rt":194.89999997615814,"trial_type":"order","trial_index":5,"time_elapsed":2963,"internal_node_id":"0.0-5.0","subject":1688674714293,"condition":"conditionB"},{"init_locations":[{"src":"http://34.125.186.26/images/4_1.jpg","x":11,"y":76},{"src":"http://34.125.186.26/images/4_2.jpg","x":173,"y":76},{"src":"http://34.125.186.26/images/4_3.jpg","x":334,"y":76},{"src":"http://34.125.186.26/images/4_4.jpg","x":495,"y":76}],"moves":[],"final_locations":[{}],"stars_time":[3997.100000023842],"end_time":[4174.5],"rt":177.39999997615814,"trial_type":"order","trial_index":6,"time_elapsed":3142,"internal_node_id":"0.0-6.0","subject":1688674714293,"condition":"conditionB"},{"init_locations":[{"src":"http://34.125.186.26/images/4_5.jpg","x":11,"y":76},{"src":"http://34.125.186.26/images/4_6.jpg","x":173,"y":76},{"src":"http://34.125.186.26/images/4_7.jpg","x":334,"y":76},{"src":"http://34.125.186.26/images/4_8.jpg","x":495,"y":76}],"moves":[],"final_locations":[{}],"stars_time":[4178.600000023842],"end_time":[4363.600000023842],"rt":185,"trial_type":"order","trial_index":7,"time_elapsed":3331,"internal_node_id":"0.0-7.0","subject":1688674714293,"condition":"conditionB"},{"init_locations":[{"src":"http://34.125.186.26/images/5_1.jpg","x":11,"y":76},{"src":"http://34.125.186.26/images/5_2.jpg","x":173,"y":76},{"src":"http://34.125.186.26/images/5_3.jpg","x":334,"y":76},{"src":"http://34.125.186.26/images/5_4.jpg","x":495,"y":76}],"moves":[],"final_locations":[{}],"stars_time":[4364.900000035763],"end_time":[4555.800000011921],"rt":190.89999997615814,"trial_type":"order","trial_index":8,"time_elapsed":3523,"internal_node_id":"0.0-8.0","subject":1688674714293,"condition":"conditionB"},{"init_locations":[{"src":"http://34.125.186.26/images/5_5.jpg","x":11,"y":76},{"src":"http://34.125.186.26/images/5_6.jpg","x":173,"y":76},{"src":"http://34.125.186.26/images/5_7.jpg","x":334,"y":76},{"src":"http://34.125.186.26/images/5_8.jpg","x":495,"y":76}],"moves":[],"final_locations":[{}],"stars_time":[4557.199999988079],"end_time":[4747.800000011921],"rt":190.60000002384186,"trial_type":"order","trial_index":9,"time_elapsed":3715,"internal_node_id":"0.0-9.0","subject":1688674714293,"condition":"conditionB"},{"init_locations":[{"src":"http://34.125.186.26/images/6_1.jpg","x":11,"y":76},{"src":"http://34.125.186.26/images/6_2.jpg","x":173,"y":76},{"src":"http://34.125.186.26/images/6_3.jpg","x":334,"y":76},{"src":"http://34.125.186.26/images/6_4.jpg","x":495,"y":76}],"moves":[],"final_locations":[{}],"stars_time":[4749.199999988079],"end_time":[4939.400000035763],"rt":190.20000004768372,"trial_type":"order","trial_index":10,"time_elapsed":3907,"internal_node_id":"0.0-10.0","subject":1688674714293,"condition":"conditionB"},{"init_locations":[{"src":"http://34.125.186.26/images/6_5.jpg","x":11,"y":76},{"src":"http://34.125.186.26/images/6_6.jpg","x":173,"y":76},{"src":"http://34.125.186.26/images/6_7.jpg","x":334,"y":76},{"src":"http://34.125.186.26/images/6_8.jpg","x":495,"y":76}],"moves":[],"final_locations":[{}],"stars_time":[4940.600000023842],"end_time":[5132.199999988079],"rt":191.5999999642372,"trial_type":"order","trial_index":11,"time_elapsed":4100,"internal_node_id":"0.0-11.0","subject":1688674714293,"condition":"conditionB"},{"init_locations":[{"src":"http://34.125.186.26/images/7_1.jpg","x":11,"y":76},{"src":"http://34.125.186.26/images/7_2.jpg","x":173,"y":76},{"src":"http://34.125.186.26/images/7_3.jpg","x":334,"y":76},{"src":"http://34.125.186.26/images/7_4.jpg","x":495,"y":76}],"moves":[],"final_locations":[{}],"stars_time":[5133.800000011921],"end_time":[5355.800000011921],"rt":222,"trial_type":"order","trial_index":12,"time_elapsed":4323,"internal_node_id":"0.0-12.0","subject":1688674714293,"condition":"conditionB"},{"init_locations":[{"src":"http://34.125.186.26/images/7_5.jpg","x":11,"y":76},{"src":"http://34.125.186.26/images/7_6.jpg","x":173,"y":76},{"src":"http://34.125.186.26/images/7_7.jpg","x":334,"y":76},{"src":"http://34.125.186.26/images/7_8.jpg","x":495,"y":76}],"moves":[],"final_locations":[{}],"stars_time":[5356.5],"end_time":[5564],"rt":207.5,"trial_type":"order","trial_index":13,"time_elapsed":4531,"internal_node_id":"0.0-13.0","subject":1688674714293,"condition":"conditionB"},{"init_locations":[{"src":"http://34.125.186.26/images/8_1.jpg","x":11,"y":76},{"src":"http://34.125.186.26/images/8_2.jpg","x":173,"y":76},{"src":"http://34.125.186.26/images/8_3.jpg","x":334,"y":76},{"src":"http://34.125.186.26/images/8_4.jpg","x":495,"y":76}],"moves":[],"final_locations":[{}],"stars_time":[5565.100000023842],"end_time":[5771.5],"rt":206.39999997615814,"trial_type":"order","trial_index":14,"time_elapsed":4739,"internal_node_id":"0.0-14.0","subject":1688674714293,"condition":"conditionB"},{"init_locations":[{"src":"http://34.125.186.26/images/8_5.jpg","x":11,"y":76},{"src":"http://34.125.186.26/images/8_6.jpg","x":173,"y":76},{"src":"http://34.125.186.26/images/8_7.jpg","x":334,"y":76},{"src":"http://34.125.186.26/images/8_8.jpg","x":495,"y":76}],"moves":[],"final_locations":[{}],"stars_time":[5772.699999988079],"end_time":[5963.600000023842],"rt":190.9000000357628,"trial_type":"order","trial_index":15,"time_elapsed":4931,"internal_node_id":"0.0-15.0","subject":1688674714293,"condition":"conditionB"},{"init_locations":[{"src":"http://34.125.186.26/images/9_1.jpg","x":11,"y":76},{"src":"http://34.125.186.26/images/9_2.jpg","x":173,"y":76},{"src":"http://34.125.186.26/images/9_3.jpg","x":334,"y":76},{"src":"http://34.125.186.26/images/9_4.jpg","x":495,"y":76}],"moves":[],"final_locations":[{}],"stars_time":[5964.900000035763],"end_time":[6139.900000035763],"rt":175,"trial_type":"order","trial_index":16,"time_elapsed":5107,"internal_node_id":"0.0-16.0","subject":1688674714293,"condition":"conditionB"},{"init_locations":[{"src":"http://34.125.186.26/images/9_5.jpg","x":11,"y":76},{"src":"http://34.125.186.26/images/9_6.jpg","x":173,"y":76},{"src":"http://34.125.186.26/images/9_7.jpg","x":334,"y":76},{"src":"http://34.125.186.26/images/9_8.jpg","x":495,"y":76}],"moves":[],"final_locations":[{}],"stars_time":[6141.199999988079],"end_time":[6315.800000011921],"rt":174.60000002384186,"trial_type":"order","trial_index":17,"time_elapsed":5283,"internal_node_id":"0.0-17.0","subject":1688674714293,"condition":"conditionB"},{"rt":2785.900000035763,"stimulus":"<p>How difficult was it to order the pictures?</p>","button_pressed":"4","trial_type":"html-button-response","trial_index":18,"time_elapsed":8073,"internal_node_id":"0.0-18.0","subject":1688674714293,"condition":"conditionB"}]