[{"init_locations":[{"src":"http://34.125.186.26/images/1_1.jpg","x":40,"y":103},{"src":"http://34.125.186.26/images/1_2.jpg","x":201,"y":103},{"src":"http://34.125.186.26/images/1_3.jpg","x":362,"y":103},{"src":"http://34.125.186.26/images/1_4.jpg","x":524,"y":103}],"moves":[{"src":"http://34.125.186.26/images/1_4.jpg","x":524,"y":341,"move_time":1464.800000011921}],"final_locations":[{"final":{"src":"http://34.125.186.26/images/1_4.jpg","x":524,"y":341,"move_time":1464.800000011921}}],"stars_time":[528.9000000357628],"end_time":[2896.5],"rt":2367.599999964237,"trial_type":"order","trial_index":0,"time_elapsed":2371,"internal_node_id":"0.0-0.0","subject":1688673748212,"condition":"conditionC"},{"init_locations":[{"src":"http://34.125.186.26/images/1_5.jpg","x":40,"y":91},{"src":"http://34.125.186.26/images/1_6.jpg","x":201,"y":91},{"src":"http://34.125.186.26/images/1_7.jpg","x":362,"y":91},{"src":"http://34.125.186.26/images/1_8.jpg","x":524,"y":91}],"moves":[],"final_locations":[{}],"stars_time":[2898.5],"end_time":[3103.400000035763],"rt":204.9000000357628,"trial_type":"order","trial_index":1,"time_elapsed":2578,"internal_node_id":"0.0-1.0","subject":1688673748212,"condition":"conditionC"},{"init_locations":[{"src":"http://34.125.186.26/images/2_1.jpg","x":40,"y":91},{"src":"http://34.125.186.26/images/2_2.jpg","x":201,"y":91},{"src":"http://34.125.186.26/images/2_3.jpg","x":362,"y":91},{"src":"http://34.125.186.26/images/2_4.jpg","x":524,"y":91}],"moves":[],"final_locations":[{}],"stars_time":[3104.600000023842],"end_time":[3280.2000000476837],"rt":175.60000002384186,"trial_type":"order","trial_index":2,"time_elapsed":2754,"internal_node_id":"0.0-2.0","subject":1688673748212,"condition":"conditionC"},{"init_locations":[{"src":"http://34.125.186.26/images/2_5.jpg","x":40,"y":91},{"src":"http://34.125.186.26/images/2_6.jpg","x":201,"y":91},{"src":"http://34.125.186.26/images/2_7.jpg","x":362,"y":91},{"src":"http://34.125.186.26/images/2_8.jpg","x":524,"y":91}],"moves":[],"final_locations":[{}],"stars_time":[3281.100000023842],"end_time":[3472.100000023842],"rt":191,"trial_type":"order","trial_index":3,"time_elapsed":2946,"internal_node_id":"0.0-3.0","subject":1688673748212,"condition":"conditionC"},{"init_locations":[{"src":"http://34.125.186.26/images/3_1.jpg","x":40,"y":91},{"src":"http://34.125.186.26/images/3_2.jpg","x":201,"y":91},{"src":"http://34.125.186.26/images/3_3.jpg","x":362,"y":91},{"src":"http://34.125.186.26/images/3_4.jpg","x":524,"y":91}],"moves":[],"final_locations":[{}],"stars_time":[3472.800000011921],"end_time":[3664.100000023842],"rt":191.30000001192093,"trial_type":"order","trial_index":4,"time_elapsed":3139,"internal_node_id":"0.0-4.0","subject":1688673748212,"condition":"conditionC"},{"init_locations":[{"src":"http://34.125.186.26/images/3_5.jpg","x":40,"y":91},{"src":"http://34.125.186.26/images/3_6.jpg","x":201,"y":91},{"src":"http://34.125.186.26/images/3_7.jpg","x":362,"y":91},{"src":"http://34.125.186.26/images/3_8.jpg","x":524,"y":91}],"moves":[],"final_locations":[{}],"stars_time":[3665.300000011921],"end_time":[3856.2000000476837],"rt":190.9000000357628,"trial_type":"order","trial_index":5,"time_elapsed":3331,"internal_node_id":"0.0-5.0","subject":1688673748212,"condition":"conditionC"},{"init_locations":[{"src":"http://34.125.186.26/images/4_1.jpg","x":40,"y":91},{"src":"http://34.125.186.26/images/4_2.jpg","x":201,"y":91},{"src":"http://34.125.186.26/images/4_3.jpg","x":362,"y":91},{"src":"http://34.125.186.26/images/4_4.jpg","x":524,"y":91}],"moves":[],"final_locations":[{}],"stars_time":[3857.400000035763],"end_time":[4068.5],"rt":211.0999999642372,"trial_type":"order","trial_index":6,"time_elapsed":3543,"internal_node_id":"0.0-6.0","subject":1688673748212,"condition":"conditionC"},{"init_locations":[{"src":"http://34.125.186.26/images/4_5.jpg","x":40,"y":91},{"src":"http://34.125.186.26/images/4_6.jpg","x":201,"y":91},{"src":"http://34.125.186.26/images/4_7.jpg","x":362,"y":91},{"src":"http://34.125.186.26/images/4_8.jpg","x":524,"y":91}],"moves":[],"final_locations":[{}],"stars_time":[4069.300000011921],"end_time":[4275.800000011921],"rt":206.5,"trial_type":"order","trial_index":7,"time_elapsed":3750,"internal_node_id":"0.0-7.0","subject":1688673748212,"condition":"conditionC"},{"init_locations":[{"src":"http://34.125.186.26/images/5_1.jpg","x":40,"y":91},{"src":"http://34.125.186.26/images/5_2.jpg","x":201,"y":91},{"src":"http://34.125.186.26/images/5_3.jpg","x":362,"y":91},{"src":"http://34.125.186.26/images/5_4.jpg","x":524,"y":91}],"moves":[],"final_locations":[{}],"stars_time":[4276.5],"end_time":[4484.100000023842],"rt":207.60000002384186,"trial_type":"order","trial_index":8,"time_elapsed":3959,"internal_node_id":"0.0-8.0","subject":1688673748212,"condition":"conditionC"},{"init_locations":[{"src":"http://34.125.186.26/images/5_5.jpg","x":40,"y":91},{"src":"http://34.125.186.26/images/5_6.jpg","x":201,"y":91},{"src":"http://34.125.186.26/images/5_7.jpg","x":362,"y":91},{"src":"http://34.125.186.26/images/5_8.jpg","x":524,"y":91}],"moves":[],"final_locations":[{}],"stars_time":[4485.800000011921],"end_time":[4708],"rt":222.19999998807907,"trial_type":"order","trial_index":9,"time_elapsed":4182,"internal_node_id":"0.0-9.0","subject":1688673748212,"condition":"conditionC"},{"init_locations":[{"src":"http://34.125.186.26/images/6_1.jpg","x":40,"y":91},{"src":"http://34.125.186.26/images/6_2.jpg","x":201,"y":91},{"src":"http://34.125.186.26/images/6_3.jpg","x":362,"y":91},{"src":"http://34.125.186.26/images/6_4.jpg","x":524,"y":91}],"moves":[],"final_locations":[{}],"stars_time":[4708.800000011921],"end_time":[4932],"rt":223.19999998807907,"trial_type":"order","trial_index":10,"time_elapsed":4406,"internal_node_id":"0.0-10.0","subject":1688673748212,"condition":"conditionC"},{"init_locations":[{"src":"http://34.125.186.26/images/6_5.jpg","x":40,"y":91},{"src":"http://34.125.186.26/images/6_6.jpg","x":201,"y":91},{"src":"http://34.125.186.26/images/6_7.jpg","x":362,"y":91},{"src":"http://34.125.186.26/images/6_8.jpg","x":524,"y":91}],"moves":[],"final_locations":[{}],"stars_time":[4932.800000011921],"end_time":[5123.900000035763],"rt":191.10000002384186,"trial_type":"order","trial_index":11,"time_elapsed":4598,"internal_node_id":"0.0-11.0","subject":1688673748212,"condition":"conditionC"},{"init_locations":[{"src":"http://34.125.186.26/images/7_1.jpg","x":40,"y":91},{"src":"http://34.125.186.26/images/7_2.jpg","x":201,"y":91},{"src":"http://34.125.186.26/images/7_3.jpg","x":362,"y":91},{"src":"http://34.125.186.26/images/7_4.jpg","x":524,"y":91}],"moves":[],"final_locations":[{}],"stars_time":[5124.400000035763],"end_time":[5347.800000011921],"rt":223.39999997615814,"trial_type":"order","trial_index":12,"time_elapsed":4822,"internal_node_id":"0.0-12.0","subject":1688673748212,"condition":"conditionC"},{"init_locations":[{"src":"http://34.125.186.26/images/7_5.jpg","x":40,"y":91},{"src":"http://34.125.186.26/images/7_6.jpg","x":201,"y":91},{"src":"http://34.125.186.26/images/7_7.jpg","x":362,"y":91},{"src":"http://34.125.186.26/images/7_8.jpg","x":524,"y":91}],"moves":[],"final_locations":[{}],"stars_time":[5348.5],"end_time":[5539.900000035763],"rt":191.4000000357628,"trial_type":"order","trial_index":13,"time_elapsed":5014,"internal_node_id":"0.0-13.0","subject":1688673748212,"condition":"conditionC"},{"init_locations":[{"src":"http://34.125.186.26/images/8_1.jpg","x":40,"y":91},{"src":"http://34.125.186.26/images/8_2.jpg","x":201,"y":91},{"src":"http://34.125.186.26/images/8_3.jpg","x":362,"y":91},{"src":"http://34.125.186.26/images/8_4.jpg","x":524,"y":91}],"moves":[],"final_locations":[{}],"stars_time":[5541],"end_time":[5732.100000023842],"rt":191.10000002384186,"trial_type":"order","trial_index":14,"time_elapsed":5206,"internal_node_id":"0.0-14.0","subject":1688673748212,"condition":"conditionC"},{"init_locations":[{"src":"http://34.125.186.26/images/8_5.jpg","x":40,"y":91},{"src":"http://34.125.186.26/images/8_6.jpg","x":201,"y":91},{"src":"http://34.125.186.26/images/8_7.jpg","x":362,"y":91},{"src":"http://34.125.186.26/images/8_8.jpg","x":524,"y":91}],"moves":[],"final_locations":[{}],"stars_time":[5733.200000047684],"end_time":[5940],"rt":206.79999995231628,"trial_type":"order","trial_index":15,"time_elapsed":5414,"internal_node_id":"0.0-15.0","subject":1688673748212,"condition":"conditionC"},{"init_locations":[{"src":"http://34.125.186.26/images/9_1.jpg","x":40,"y":91},{"src":"http://34.125.186.26/images/9_2.jpg","x":201,"y":91},{"src":"http://34.125.186.26/images/9_3.jpg","x":362,"y":91},{"src":"http://34.125.186.26/images/9_4.jpg","x":524,"y":91}],"moves":[],"final_locations":[{}],"stars_time":[5941],"end_time":[6147.700000047684],"rt":206.70000004768372,"trial_type":"order","trial_index":16,"time_elapsed":5622,"internal_node_id":"0.0-16.0","subject":1688673748212,"condition":"conditionC"},{"init_locations":[{"src":"http://34.125.186.26/images/9_5.jpg","x":40,"y":91},{"src":"http://34.125.186.26/images/9_6.jpg","x":201,"y":91},{"src":"http://34.125.186.26/images/9_7.jpg","x":362,"y":91},{"src":"http://34.125.186.26/images/9_8.jpg","x":524,"y":91}],"moves":[],"final_locations":[{}],"stars_time":[6148.400000035763],"end_time":[6355.700000047684],"rt":207.30000001192093,"trial_type":"order","trial_index":17,"time_elapsed":5830,"internal_node_id":"0.0-17.0","subject":1688673748212,"condition":"conditionC"},{"rt":1315.199999988079,"stimulus":"<p>How difficult was it to order the pictures?</p>","button_pressed":"2","trial_type":"html-button-response","trial_index":18,"time_elapsed":7146,"internal_node_id":"0.0-18.0","subject":1688673748212,"condition":"conditionC"}]