[{"view_history":"[{\"page_index\":0,\"viewing_time\":2085.7999999523163},{\"page_index\":1,\"viewing_time\":639.1000000238419},{\"page_index\":2,\"viewing_time\":208.10000002384186}]","rt":2933.5,"trial_type":"instructions","trial_index":0,"time_elapsed":2939,"internal_node_id":"0.0-0.0","subject":"7.7.2023, 23:22:29","condition":"conditionB"},{"init_locations":[{"src":"http://34.125.186.26/images/test_3.jpg","x":40,"y":76},{"src":"http://34.125.186.26/images/test_4.jpg","x":201,"y":76},{"src":"http://34.125.186.26/images/test_1.jpg","x":362,"y":76},{"src":"http://34.125.186.26/images/test_2.jpg","x":524,"y":76}],"moves":[{"src":"http://34.125.186.26/images/test_1.jpg","x":362,"y":314,"move_time":1034.8999999761581}],"final_locations":[{"final":{"src":"http://34.125.186.26/images/test_1.jpg","x":362,"y":314,"move_time":1034.8999999761581}}],"stars_time":[3275.800000011921],"end_time":[5293.800000011921],"rt":2018,"trial_type":"order","trial_index":1,"time_elapsed":4959,"internal_node_id":"0.0-1.0","subject":"7.7.2023, 23:22:29","condition":"conditionB"},{"view_history":"[{\"page_index\":0,\"viewing_time\":1006.3999999761581}]","rt":1006.8999999761581,"trial_type":"instructions","trial_index":2,"time_elapsed":5967,"internal_node_id":"0.0-2.0","subject":"7.7.2023, 23:22:29","condition":"conditionB"},{"init_locations":[{"src":"http://34.125.186.26/images/2_5.jpg","x":40,"y":76},{"src":"http://34.125.186.26/images/2_6.jpg","x":201,"y":76},{"src":"http://34.125.186.26/images/2_7.jpg","x":362,"y":76},{"src":"http://34.125.186.26/images/2_8.jpg","x":524,"y":76}],"moves":[{"src":"http://34.125.186.26/images/2_7.jpg","x":362,"y":314,"move_time":897.3000000119209}],"final_locations":[{"final":{"src":"http://34.125.186.26/images/2_7.jpg","x":362,"y":314,"move_time":897.3000000119209}}],"stars_time":[6302.599999964237],"end_time":[8401.399999976158],"rt":2098.800000011921,"trial_type":"order","trial_index":3,"time_elapsed":8067,"internal_node_id":"0.0-3.0","subject":"7.7.2023, 23:22:29","condition":"conditionB"},{"rt":1066.300000011921,"stimulus":"<p>How difficult was it to order the pictures?</p>","button_pressed":"3","trial_type":"html-button-response","trial_index":4,"time_elapsed":9135,"internal_node_id":"0.0-4.0","subject":"7.7.2023, 23:22:29","condition":"conditionB"},{"rt":1347.800000011921,"responses":"{\"Q0\":\"\"}","trial_type":"survey-text","trial_index":5,"time_elapsed":10487,"internal_node_id":"0.0-5.0","subject":"7.7.2023, 23:22:29","condition":"conditionB"},{"init_locations":[{"src":"http://34.125.186.26/images/7_1.jpg","x":40,"y":76},{"src":"http://34.125.186.26/images/7_2.jpg","x":201,"y":76},{"src":"http://34.125.186.26/images/7_4.jpg","x":362,"y":76},{"src":"http://34.125.186.26/images/7_3.jpg","x":524,"y":76}],"moves":[{"src":"http://34.125.186.26/images/7_4.jpg","x":362,"y":314,"move_time":1110.5}],"final_locations":[{"final":{"src":"http://34.125.186.26/images/7_4.jpg","x":362,"y":314,"move_time":1110.5}}],"stars_time":[10823.399999976158],"end_time":[13257.300000011921],"rt":2433.900000035763,"trial_type":"order","trial_index":6,"time_elapsed":12922,"internal_node_id":"0.0-6.0","subject":"7.7.2023, 23:22:29","condition":"conditionB"}]