[{"init_locations":[{"src":"http://34.125.186.26/images/1_1.jpg","x":317,"y":87},{"src":"http://34.125.186.26/images/1_2.jpg","x":478,"y":87},{"src":"http://34.125.186.26/images/1_3.jpg","x":640,"y":87},{"src":"http://34.125.186.26/images/1_4.jpg","x":801,"y":87}],"moves":[{"src":"http://34.125.186.26/images/1_3.jpg","x":640,"y":325,"move_time":1618.800000011921},{"src":"http://34.125.186.26/images/1_2.jpg","x":640,"y":325,"move_time":988.1000000238419},{"src":"http://34.125.186.26/images/1_3.jpg","x":478,"y":325,"move_time":808.5999999642372}],"final_locations":[{"final":{"src":"http://34.125.186.26/images/1_3.jpg","x":478,"y":325,"move_time":808.5999999642372}}],"stars_time":[695.7999999523163],"end_time":[4945.799999952316],"rt":4250,"trial_type":"order","trial_index":0,"time_elapsed":4256,"internal_node_id":"0.0-0.0","subject":1688674732955,"condition":"conditionB"},{"init_locations":[{"src":"http://34.125.186.26/images/1_5.jpg","x":317,"y":76},{"src":"http://34.125.186.26/images/1_6.jpg","x":478,"y":76},{"src":"http://34.125.186.26/images/1_7.jpg","x":640,"y":76},{"src":"http://34.125.186.26/images/1_8.jpg","x":801,"y":76}],"moves":[],"final_locations":[{}],"stars_time":[4947.699999988079],"end_time":[5121],"rt":173.30000001192093,"trial_type":"order","trial_index":1,"time_elapsed":4430,"internal_node_id":"0.0-1.0","subject":1688674732955,"condition":"conditionB"},{"init_locations":[{"src":"http://34.125.186.26/images/2_1.jpg","x":317,"y":76},{"src":"http://34.125.186.26/images/2_2.jpg","x":478,"y":76},{"src":"http://34.125.186.26/images/2_3.jpg","x":640,"y":76},{"src":"http://34.125.186.26/images/2_4.jpg","x":801,"y":76}],"moves":[],"final_locations":[{}],"stars_time":[5122],"end_time":[5317.199999988079],"rt":195.19999998807907,"trial_type":"order","trial_index":2,"time_elapsed":4626,"internal_node_id":"0.0-2.0","subject":1688674732955,"condition":"conditionB"},{"init_locations":[{"src":"http://34.125.186.26/images/2_5.jpg","x":317,"y":76},{"src":"http://34.125.186.26/images/2_6.jpg","x":478,"y":76},{"src":"http://34.125.186.26/images/2_7.jpg","x":640,"y":76},{"src":"http://34.125.186.26/images/2_8.jpg","x":801,"y":76}],"moves":[],"final_locations":[{}],"stars_time":[5318],"end_time":[5508.899999976158],"rt":190.89999997615814,"trial_type":"order","trial_index":3,"time_elapsed":4818,"internal_node_id":"0.0-3.0","subject":1688674732955,"condition":"conditionB"},{"init_locations":[{"src":"http://34.125.186.26/images/3_1.jpg","x":317,"y":76},{"src":"http://34.125.186.26/images/3_2.jpg","x":478,"y":76},{"src":"http://34.125.186.26/images/3_3.jpg","x":640,"y":76},{"src":"http://34.125.186.26/images/3_4.jpg","x":801,"y":76}],"moves":[],"final_locations":[{}],"stars_time":[5509.599999964237],"end_time":[5684.599999964237],"rt":175,"trial_type":"order","trial_index":4,"time_elapsed":4994,"internal_node_id":"0.0-4.0","subject":1688674732955,"condition":"conditionB"},{"init_locations":[{"src":"http://34.125.186.26/images/3_5.jpg","x":317,"y":76},{"src":"http://34.125.186.26/images/3_6.jpg","x":478,"y":76},{"src":"http://34.125.186.26/images/3_7.jpg","x":640,"y":76},{"src":"http://34.125.186.26/images/3_8.jpg","x":801,"y":76}],"moves":[],"final_locations":[{}],"stars_time":[5685.5],"end_time":[5892.599999964237],"rt":207.0999999642372,"trial_type":"order","trial_index":5,"time_elapsed":5203,"internal_node_id":"0.0-5.0","subject":1688674732955,"condition":"conditionB"},{"init_locations":[{"src":"http://34.125.186.26/images/4_1.jpg","x":317,"y":76},{"src":"http://34.125.186.26/images/4_2.jpg","x":478,"y":76},{"src":"http://34.125.186.26/images/4_3.jpg","x":640,"y":76},{"src":"http://34.125.186.26/images/4_4.jpg","x":801,"y":76}],"moves":[],"final_locations":[{}],"stars_time":[5894.599999964237],"end_time":[6084.699999988079],"rt":190.10000002384186,"trial_type":"order","trial_index":6,"time_elapsed":5394,"internal_node_id":"0.0-6.0","subject":1688674732955,"condition":"conditionB"},{"init_locations":[{"src":"http://34.125.186.26/images/4_5.jpg","x":317,"y":76},{"src":"http://34.125.186.26/images/4_6.jpg","x":478,"y":76},{"src":"http://34.125.186.26/images/4_7.jpg","x":640,"y":76},{"src":"http://34.125.186.26/images/4_8.jpg","x":801,"y":76}],"moves":[],"final_locations":[{}],"stars_time":[6085.699999988079],"end_time":[7125.399999976158],"rt":1039.699999988079,"trial_type":"order","trial_index":7,"time_elapsed":6435,"internal_node_id":"0.0-7.0","subject":1688674732955,"condition":"conditionB"},{"init_locations":[{"src":"http://34.125.186.26/images/5_1.jpg","x":317,"y":76},{"src":"http://34.125.186.26/images/5_2.jpg","x":478,"y":76},{"src":"http://34.125.186.26/images/5_3.jpg","x":640,"y":76},{"src":"http://34.125.186.26/images/5_4.jpg","x":801,"y":76}],"moves":[],"final_locations":[{}],"stars_time":[7126.099999964237],"end_time":[7300.699999988079],"rt":174.60000002384186,"trial_type":"order","trial_index":8,"time_elapsed":6610,"internal_node_id":"0.0-8.0","subject":1688674732955,"condition":"conditionB"},{"init_locations":[{"src":"http://34.125.186.26/images/5_5.jpg","x":317,"y":76},{"src":"http://34.125.186.26/images/5_6.jpg","x":478,"y":76},{"src":"http://34.125.186.26/images/5_7.jpg","x":640,"y":76},{"src":"http://34.125.186.26/images/5_8.jpg","x":801,"y":76}],"moves":[],"final_locations":[{}],"stars_time":[7301.199999988079],"end_time":[7493.5],"rt":192.30000001192093,"trial_type":"order","trial_index":9,"time_elapsed":6803,"internal_node_id":"0.0-9.0","subject":1688674732955,"condition":"conditionB"},{"init_locations":[{"src":"http://34.125.186.26/images/6_1.jpg","x":317,"y":76},{"src":"http://34.125.186.26/images/6_2.jpg","x":478,"y":76},{"src":"http://34.125.186.26/images/6_3.jpg","x":640,"y":76},{"src":"http://34.125.186.26/images/6_4.jpg","x":801,"y":76}],"moves":[],"final_locations":[{}],"stars_time":[7494.699999988079],"end_time":[7684.799999952316],"rt":190.0999999642372,"trial_type":"order","trial_index":10,"time_elapsed":6994,"internal_node_id":"0.0-10.0","subject":1688674732955,"condition":"conditionB"},{"init_locations":[{"src":"http://34.125.186.26/images/6_5.jpg","x":317,"y":76},{"src":"http://34.125.186.26/images/6_6.jpg","x":478,"y":76},{"src":"http://34.125.186.26/images/6_7.jpg","x":640,"y":76},{"src":"http://34.125.186.26/images/6_8.jpg","x":801,"y":76}],"moves":[],"final_locations":[{}],"stars_time":[7685.799999952316],"end_time":[7876.5],"rt":190.70000004768372,"trial_type":"order","trial_index":11,"time_elapsed":7186,"internal_node_id":"0.0-11.0","subject":1688674732955,"condition":"conditionB"},{"init_locations":[{"src":"http://34.125.186.26/images/7_1.jpg","x":317,"y":76},{"src":"http://34.125.186.26/images/7_2.jpg","x":478,"y":76},{"src":"http://34.125.186.26/images/7_3.jpg","x":640,"y":76},{"src":"http://34.125.186.26/images/7_4.jpg","x":801,"y":76}],"moves":[],"final_locations":[{}],"stars_time":[7877],"end_time":[8148.5],"rt":271.5,"trial_type":"order","trial_index":12,"time_elapsed":7458,"internal_node_id":"0.0-12.0","subject":1688674732955,"condition":"conditionB"},{"init_locations":[{"src":"http://34.125.186.26/images/7_5.jpg","x":317,"y":76},{"src":"http://34.125.186.26/images/7_6.jpg","x":478,"y":76},{"src":"http://34.125.186.26/images/7_7.jpg","x":640,"y":76},{"src":"http://34.125.186.26/images/7_8.jpg","x":801,"y":76}],"moves":[],"final_locations":[{}],"stars_time":[8149.199999988079],"end_time":[8345.099999964237],"rt":195.89999997615814,"trial_type":"order","trial_index":13,"time_elapsed":7654,"internal_node_id":"0.0-13.0","subject":1688674732955,"condition":"conditionB"},{"init_locations":[{"src":"http://34.125.186.26/images/8_1.jpg","x":317,"y":76},{"src":"http://34.125.186.26/images/8_2.jpg","x":478,"y":76},{"src":"http://34.125.186.26/images/8_3.jpg","x":640,"y":76},{"src":"http://34.125.186.26/images/8_4.jpg","x":801,"y":76}],"moves":[],"final_locations":[{}],"stars_time":[8345.599999964237],"end_time":[8552.799999952316],"rt":207.19999998807907,"trial_type":"order","trial_index":14,"time_elapsed":7862,"internal_node_id":"0.0-14.0","subject":1688674732955,"condition":"conditionB"},{"init_locations":[{"src":"http://34.125.186.26/images/8_5.jpg","x":317,"y":76},{"src":"http://34.125.186.26/images/8_6.jpg","x":478,"y":76},{"src":"http://34.125.186.26/images/8_7.jpg","x":640,"y":76},{"src":"http://34.125.186.26/images/8_8.jpg","x":801,"y":76}],"moves":[],"final_locations":[{}],"stars_time":[8553.5],"end_time":[8744.5],"rt":191,"trial_type":"order","trial_index":15,"time_elapsed":8054,"internal_node_id":"0.0-15.0","subject":1688674732955,"condition":"conditionB"},{"init_locations":[{"src":"http://34.125.186.26/images/9_1.jpg","x":317,"y":76},{"src":"http://34.125.186.26/images/9_2.jpg","x":478,"y":76},{"src":"http://34.125.186.26/images/9_3.jpg","x":640,"y":76},{"src":"http://34.125.186.26/images/9_4.jpg","x":801,"y":76}],"moves":[],"final_locations":[{}],"stars_time":[8745.699999988079],"end_time":[8936.899999976158],"rt":191.19999998807907,"trial_type":"order","trial_index":16,"time_elapsed":8246,"internal_node_id":"0.0-16.0","subject":1688674732955,"condition":"conditionB"},{"init_locations":[{"src":"http://34.125.186.26/images/9_5.jpg","x":317,"y":76},{"src":"http://34.125.186.26/images/9_6.jpg","x":478,"y":76},{"src":"http://34.125.186.26/images/9_7.jpg","x":640,"y":76},{"src":"http://34.125.186.26/images/9_8.jpg","x":801,"y":76}],"moves":[],"final_locations":[{}],"stars_time":[8937.399999976158],"end_time":[9129.099999964237],"rt":191.69999998807907,"trial_type":"order","trial_index":17,"time_elapsed":8438,"internal_node_id":"0.0-17.0","subject":1688674732955,"condition":"conditionB"},{"rt":1071,"stimulus":"<p>How difficult was it to order the pictures?</p>","button_pressed":"1","trial_type":"html-button-response","trial_index":18,"time_elapsed":9510,"internal_node_id":"0.0-18.0","subject":1688674732955,"condition":"conditionB"}]