[{"view_history":"[{\"page_index\":0,\"viewing_time\":1600.2000000476837},{\"page_index\":1,\"viewing_time\":1022},{\"page_index\":2,\"viewing_time\":883.8999999761581}]","rt":3506.5,"trial_type":"instructions","trial_index":0,"time_elapsed":3515,"internal_node_id":"0.0-0.0","subject":1688774680093,"condition":"conditionA"},{"init_locations":[{"src":"http://34.125.186.26/images/test_3.jpg","x":40,"y":103},{"src":"http://34.125.186.26/images/test_4.jpg","x":201,"y":103},{"src":"http://34.125.186.26/images/test_1.jpg","x":362,"y":103},{"src":"http://34.125.186.26/images/test_2.jpg","x":524,"y":103}],"moves":[{"src":"http://34.125.186.26/images/test_3.jpg","x":201,"y":341,"move_time":6626.700000047684},{"src":"http://34.125.186.26/images/test_3.jpg","x":40,"y":341,"move_time":1245.199999988079},{"src":"http://34.125.186.26/images/test_4.jpg","x":201,"y":341,"move_time":1038.699999988079},{"src":"http://34.125.186.26/images/test_1.jpg","x":362,"y":341,"move_time":1620.699999988079},{"src":"http://34.125.186.26/images/test_2.jpg","x":524,"y":341,"move_time":862.4000000357628},{"src":"http://34.125.186.26/images/test_1.jpg","x":40,"y":341,"move_time":6055.899999976158},{"src":"http://34.125.186.26/images/test_2.jpg","x":201,"y":341,"move_time":4794.600000023842}],"final_locations":[{"final":{"src":"http://34.125.186.26/images/test_2.jpg","x":201,"y":341,"move_time":4794.600000023842}}],"stars_time":[4038.399999976158],"end_time":[30497],"rt":26458.600000023842,"trial_type":"order","trial_index":1,"time_elapsed":29975,"internal_node_id":"0.0-1.0","subject":1688774680093,"condition":"conditionA"},{"view_history":"[{\"page_index\":0,\"viewing_time\":1283.5}]","rt":1283.699999988079,"trial_type":"instructions","trial_index":2,"time_elapsed":31259,"internal_node_id":"0.0-2.0","subject":1688774680093,"condition":"conditionA"},{"init_locations":[{"src":"http://34.125.186.26/images/2_5.jpg","x":40,"y":103},{"src":"http://34.125.186.26/images/2_6.jpg","x":201,"y":103},{"src":"http://34.125.186.26/images/2_7.jpg","x":362,"y":103},{"src":"http://34.125.186.26/images/2_8.jpg","x":524,"y":103}],"moves":[{"src":"http://34.125.186.26/images/2_5.jpg","x":40,"y":341,"move_time":13940.699999988079},{"src":"http://34.125.186.26/images/2_7.jpg","x":201,"y":341,"move_time":2595.399999976158},{"src":"http://34.125.186.26/images/2_6.jpg","x":362,"y":341,"move_time":1568},{"src":"http://34.125.186.26/images/2_8.jpg","x":524,"y":341,"move_time":1172.1000000238419}],"final_locations":[{"final":{"src":"http://34.125.186.26/images/2_8.jpg","x":524,"y":341,"move_time":1172.1000000238419}}],"stars_time":[31781.80000001192],"end_time":[52045.39999997616],"rt":20263.599999964237,"trial_type":"order","trial_index":3,"time_elapsed":51523,"internal_node_id":"0.0-3.0","subject":1688774680093,"condition":"conditionA"},{"rt":2434.900000035763,"stimulus":"<p>How difficult was it to order the pictures?</p>","button_pressed":"2","trial_type":"html-button-response","trial_index":4,"time_elapsed":53960,"internal_node_id":"0.0-4.0","subject":1688774680093,"condition":"conditionA"},{"rt":4493,"responses":"{\"Q0\":\"\"}","trial_type":"survey-text","trial_index":5,"time_elapsed":58455,"internal_node_id":"0.0-5.0","subject":1688774680093,"condition":"conditionA"},{"init_locations":[{"src":"http://34.125.186.26/images/7_1.jpg","x":40,"y":103},{"src":"http://34.125.186.26/images/7_2.jpg","x":201,"y":103},{"src":"http://34.125.186.26/images/7_4.jpg","x":362,"y":103},{"src":"http://34.125.186.26/images/7_3.jpg","x":524,"y":103}],"moves":[{"src":"http://34.125.186.26/images/7_1.jpg","x":40,"y":341,"move_time":1794.7999999523163},{"src":"http://34.125.186.26/images/7_2.jpg","x":201,"y":341,"move_time":1203},{"src":"http://34.125.186.26/images/7_3.jpg","x":362,"y":341,"move_time":6938.900000035763},{"src":"http://34.125.186.26/images/7_4.jpg","x":524,"y":341,"move_time":1059}],"final_locations":[{"final":{"src":"http://34.125.186.26/images/7_4.jpg","x":524,"y":341,"move_time":1059}}],"stars_time":[58978.60000002384],"end_time":[71074.80000001192],"rt":12096.199999988079,"trial_type":"order","trial_index":6,"time_elapsed":70552,"internal_node_id":"0.0-6.0","subject":1688774680093,"condition":"conditionA"}]