[{"init_locations":[{"src":"http://34.125.186.26/images/1_1.jpg","x":40,"y":103},{"src":"http://34.125.186.26/images/1_2.jpg","x":201,"y":103},{"src":"http://34.125.186.26/images/1_3.jpg","x":362,"y":103},{"src":"http://34.125.186.26/images/1_4.jpg","x":524,"y":103}],"moves":[{"src":"http://34.125.186.26/images/1_1.jpg","x":40,"y":341,"move_time":1562.8999999761581}],"final_locations":[{"final":{"src":"http://34.125.186.26/images/1_1.jpg","x":40,"y":341,"move_time":1562.8999999761581}}],"stars_time":[271.5],"end_time":[3976.899999976158],"rt":3705.399999976158,"trial_type":"order","trial_index":0,"time_elapsed":3707,"internal_node_id":"0.0-0.0","subject":1688772651906,"condition":"conditionA"},{"init_locations":[{"src":"http://34.125.186.26/images/1_5.jpg","x":40,"y":91},{"src":"http://34.125.186.26/images/1_6.jpg","x":201,"y":91},{"src":"http://34.125.186.26/images/1_7.jpg","x":362,"y":91},{"src":"http://34.125.186.26/images/1_8.jpg","x":524,"y":91}],"moves":[{"src":"http://34.125.186.26/images/1_6.jpg","x":201,"y":341,"move_time":1155.5999999642372}],"final_locations":[{"final":{"src":"http://34.125.186.26/images/1_6.jpg","x":201,"y":341,"move_time":1155.5999999642372}}],"stars_time":[3977.800000011921],"end_time":[6548.5],"rt":2570.699999988079,"trial_type":"order","trial_index":1,"time_elapsed":6278,"internal_node_id":"0.0-1.0","subject":1688772651906,"condition":"conditionA"},{"init_locations":[{"src":"http://34.125.186.26/images/2_1.jpg","x":40,"y":91},{"src":"http://34.125.186.26/images/2_2.jpg","x":201,"y":91},{"src":"http://34.125.186.26/images/2_3.jpg","x":362,"y":91},{"src":"http://34.125.186.26/images/2_4.jpg","x":524,"y":91}],"moves":[{"src":"http://34.125.186.26/images/2_1.jpg","x":40,"y":341,"move_time":916.5}],"final_locations":[{"final":{"src":"http://34.125.186.26/images/2_1.jpg","x":40,"y":341,"move_time":916.5}}],"stars_time":[6549.399999976158],"end_time":[8728.800000011921],"rt":2179.400000035763,"trial_type":"order","trial_index":2,"time_elapsed":8459,"internal_node_id":"0.0-2.0","subject":1688772651906,"condition":"conditionA"},{"init_locations":[{"src":"http://34.125.186.26/images/2_5.jpg","x":40,"y":91},{"src":"http://34.125.186.26/images/2_6.jpg","x":201,"y":91},{"src":"http://34.125.186.26/images/2_7.jpg","x":362,"y":91},{"src":"http://34.125.186.26/images/2_8.jpg","x":524,"y":91}],"moves":[],"final_locations":[{}],"stars_time":[8729.699999988079],"end_time":[8936.699999988079],"rt":207,"trial_type":"order","trial_index":3,"time_elapsed":8667,"internal_node_id":"0.0-3.0","subject":1688772651906,"condition":"conditionA"},{"init_locations":[{"src":"http://34.125.186.26/images/3_1.jpg","x":40,"y":91},{"src":"http://34.125.186.26/images/3_2.jpg","x":201,"y":91},{"src":"http://34.125.186.26/images/3_3.jpg","x":362,"y":91},{"src":"http://34.125.186.26/images/3_4.jpg","x":524,"y":91}],"moves":[],"final_locations":[{}],"stars_time":[8937.199999988079],"end_time":[9160.600000023842],"rt":223.4000000357628,"trial_type":"order","trial_index":4,"time_elapsed":8891,"internal_node_id":"0.0-4.0","subject":1688772651906,"condition":"conditionA"},{"init_locations":[{"src":"http://34.125.186.26/images/3_5.jpg","x":40,"y":91},{"src":"http://34.125.186.26/images/3_6.jpg","x":201,"y":91},{"src":"http://34.125.186.26/images/3_7.jpg","x":362,"y":91},{"src":"http://34.125.186.26/images/3_8.jpg","x":524,"y":91}],"moves":[],"final_locations":[{}],"stars_time":[9161.399999976158],"end_time":[9384.100000023842],"rt":222.70000004768372,"trial_type":"order","trial_index":5,"time_elapsed":9114,"internal_node_id":"0.0-5.0","subject":1688772651906,"condition":"conditionA"},{"init_locations":[{"src":"http://34.125.186.26/images/4_1.jpg","x":40,"y":91},{"src":"http://34.125.186.26/images/4_2.jpg","x":201,"y":91},{"src":"http://34.125.186.26/images/4_3.jpg","x":362,"y":91},{"src":"http://34.125.186.26/images/4_4.jpg","x":524,"y":91}],"moves":[],"final_locations":[{}],"stars_time":[9384.899999976158],"end_time":[9592.600000023842],"rt":207.70000004768372,"trial_type":"order","trial_index":6,"time_elapsed":9323,"internal_node_id":"0.0-6.0","subject":1688772651906,"condition":"conditionA"},{"init_locations":[{"src":"http://34.125.186.26/images/4_5.jpg","x":40,"y":91},{"src":"http://34.125.186.26/images/4_6.jpg","x":201,"y":91},{"src":"http://34.125.186.26/images/4_7.jpg","x":362,"y":91},{"src":"http://34.125.186.26/images/4_8.jpg","x":524,"y":91}],"moves":[],"final_locations":[{}],"stars_time":[9593.5],"end_time":[9800.5],"rt":207,"trial_type":"order","trial_index":7,"time_elapsed":9530,"internal_node_id":"0.0-7.0","subject":1688772651906,"condition":"conditionA"},{"init_locations":[{"src":"http://34.125.186.26/images/5_1.jpg","x":40,"y":91},{"src":"http://34.125.186.26/images/5_2.jpg","x":201,"y":91},{"src":"http://34.125.186.26/images/5_3.jpg","x":362,"y":91},{"src":"http://34.125.186.26/images/5_4.jpg","x":524,"y":91}],"moves":[],"final_locations":[{}],"stars_time":[9801.5],"end_time":[10008.600000023842],"rt":207.10000002384186,"trial_type":"order","trial_index":8,"time_elapsed":9738,"internal_node_id":"0.0-8.0","subject":1688772651906,"condition":"conditionA"},{"init_locations":[{"src":"http://34.125.186.26/images/5_5.jpg","x":40,"y":91},{"src":"http://34.125.186.26/images/5_6.jpg","x":201,"y":91},{"src":"http://34.125.186.26/images/5_7.jpg","x":362,"y":91},{"src":"http://34.125.186.26/images/5_8.jpg","x":524,"y":91}],"moves":[],"final_locations":[{}],"stars_time":[10009.300000011921],"end_time":[10216.300000011921],"rt":207,"trial_type":"order","trial_index":9,"time_elapsed":9946,"internal_node_id":"0.0-9.0","subject":1688772651906,"condition":"conditionA"},{"init_locations":[{"src":"http://34.125.186.26/images/6_1.jpg","x":40,"y":91},{"src":"http://34.125.186.26/images/6_2.jpg","x":201,"y":91},{"src":"http://34.125.186.26/images/6_3.jpg","x":362,"y":91},{"src":"http://34.125.186.26/images/6_4.jpg","x":524,"y":91}],"moves":[],"final_locations":[{}],"stars_time":[10217],"end_time":[10440.300000011921],"rt":223.30000001192093,"trial_type":"order","trial_index":10,"time_elapsed":10170,"internal_node_id":"0.0-10.0","subject":1688772651906,"condition":"conditionA"},{"init_locations":[{"src":"http://34.125.186.26/images/6_5.jpg","x":40,"y":91},{"src":"http://34.125.186.26/images/6_6.jpg","x":201,"y":91},{"src":"http://34.125.186.26/images/6_7.jpg","x":362,"y":91},{"src":"http://34.125.186.26/images/6_8.jpg","x":524,"y":91}],"moves":[],"final_locations":[{}],"stars_time":[10441.100000023842],"end_time":[10664.600000023842],"rt":223.5,"trial_type":"order","trial_index":11,"time_elapsed":10395,"internal_node_id":"0.0-11.0","subject":1688772651906,"condition":"conditionA"},{"init_locations":[{"src":"http://34.125.186.26/images/7_1.jpg","x":40,"y":91},{"src":"http://34.125.186.26/images/7_2.jpg","x":201,"y":91},{"src":"http://34.125.186.26/images/7_3.jpg","x":362,"y":91},{"src":"http://34.125.186.26/images/7_4.jpg","x":524,"y":91}],"moves":[],"final_locations":[{}],"stars_time":[10665.300000011921],"end_time":[10888.199999988079],"rt":222.89999997615814,"trial_type":"order","trial_index":12,"time_elapsed":10618,"internal_node_id":"0.0-12.0","subject":1688772651906,"condition":"conditionA"},{"init_locations":[{"src":"http://34.125.186.26/images/7_5.jpg","x":40,"y":91},{"src":"http://34.125.186.26/images/7_6.jpg","x":201,"y":91},{"src":"http://34.125.186.26/images/7_7.jpg","x":362,"y":91},{"src":"http://34.125.186.26/images/7_8.jpg","x":524,"y":91}],"moves":[],"final_locations":[{}],"stars_time":[10888.800000011921],"end_time":[11112.5],"rt":223.69999998807907,"trial_type":"order","trial_index":13,"time_elapsed":10842,"internal_node_id":"0.0-13.0","subject":1688772651906,"condition":"conditionA"},{"init_locations":[{"src":"http://34.125.186.26/images/8_1.jpg","x":40,"y":91},{"src":"http://34.125.186.26/images/8_2.jpg","x":201,"y":91},{"src":"http://34.125.186.26/images/8_3.jpg","x":362,"y":91},{"src":"http://34.125.186.26/images/8_4.jpg","x":524,"y":91}],"moves":[],"final_locations":[{}],"stars_time":[11113],"end_time":[11540.199999988079],"rt":427.19999998807907,"trial_type":"order","trial_index":14,"time_elapsed":11270,"internal_node_id":"0.0-14.0","subject":1688772651906,"condition":"conditionA"},{"init_locations":[{"src":"http://34.125.186.26/images/8_5.jpg","x":40,"y":91},{"src":"http://34.125.186.26/images/8_6.jpg","x":201,"y":91},{"src":"http://34.125.186.26/images/8_7.jpg","x":362,"y":91},{"src":"http://34.125.186.26/images/8_8.jpg","x":524,"y":91}],"moves":[{"src":"http://34.125.186.26/images/8_6.jpg","x":201,"y":341,"move_time":16955.80000001192},{"src":"http://34.125.186.26/images/8_7.jpg","x":362,"y":341,"move_time":769}],"final_locations":[{"final":{"src":"http://34.125.186.26/images/8_7.jpg","x":362,"y":341,"move_time":769}}],"stars_time":[11540.899999976158],"end_time":[30120.19999998808],"rt":18579.30000001192,"trial_type":"order","trial_index":15,"time_elapsed":29850,"internal_node_id":"0.0-15.0","subject":1688772651906,"condition":"conditionA"},{"init_locations":[{"src":"http://34.125.186.26/images/9_1.jpg","x":40,"y":91},{"src":"http://34.125.186.26/images/9_2.jpg","x":201,"y":91},{"src":"http://34.125.186.26/images/9_3.jpg","x":362,"y":91},{"src":"http://34.125.186.26/images/9_4.jpg","x":524,"y":91}],"moves":[],"final_locations":[{}],"stars_time":[30121.19999998808],"end_time":[30328.899999976158],"rt":207.69999998807907,"trial_type":"order","trial_index":16,"time_elapsed":30059,"internal_node_id":"0.0-16.0","subject":1688772651906,"condition":"conditionA"},{"init_locations":[{"src":"http://34.125.186.26/images/9_5.jpg","x":40,"y":91},{"src":"http://34.125.186.26/images/9_6.jpg","x":201,"y":91},{"src":"http://34.125.186.26/images/9_7.jpg","x":362,"y":91},{"src":"http://34.125.186.26/images/9_8.jpg","x":524,"y":91}],"moves":[],"final_locations":[{}],"stars_time":[30329.399999976158],"end_time":[30536.600000023842],"rt":207.20000004768372,"trial_type":"order","trial_index":17,"time_elapsed":30266,"internal_node_id":"0.0-17.0","subject":1688772651906,"condition":"conditionA"},{"rt":974.2000000476837,"stimulus":"<p>How difficult was it to order the pictures?</p>","button_pressed":"2","trial_type":"html-button-response","trial_index":18,"time_elapsed":31242,"internal_node_id":"0.0-18.0","subject":1688772651906,"condition":"conditionA"}]