[{"view_history":"[{\"page_index\":0,\"viewing_time\":1300.199999988079},{\"page_index\":1,\"viewing_time\":207.30000001192093},{\"page_index\":2,\"viewing_time\":208.9000000357628}]","rt":1717,"trial_type":"instructions","trial_index":0,"time_elapsed":1720,"internal_node_id":"0.0-0.0","subject":"7.7.2023, 23:13:40","condition":"conditionB"},{"init_locations":[{"src":"http://34.125.186.26/images/test_3.jpg","x":40,"y":76},{"src":"http://34.125.186.26/images/test_4.jpg","x":201,"y":76},{"src":"http://34.125.186.26/images/test_1.jpg","x":362,"y":76},{"src":"http://34.125.186.26/images/test_2.jpg","x":524,"y":76}],"moves":[{"src":"http://34.125.186.26/images/test_1.jpg","x":362,"y":314,"move_time":1048.5999999642372}],"final_locations":[{"final":{"src":"http://34.125.186.26/images/test_1.jpg","x":362,"y":314,"move_time":1048.5999999642372}}],"stars_time":[2219.100000023842],"end_time":[3948.600000023842],"rt":1729.5,"trial_type":"order","trial_index":1,"time_elapsed":3451,"internal_node_id":"0.0-1.0","subject":"7.7.2023, 23:13:40","condition":"conditionB"},{"view_history":"[{\"page_index\":0,\"viewing_time\":911.1999999880791}]","rt":911.7999999523163,"trial_type":"instructions","trial_index":2,"time_elapsed":4363,"internal_node_id":"0.0-2.0","subject":"7.7.2023, 23:13:40","condition":"conditionB"},{"init_locations":[{"src":"http://34.125.186.26/images/2_5.jpg","x":40,"y":76},{"src":"http://34.125.186.26/images/2_6.jpg","x":201,"y":76},{"src":"http://34.125.186.26/images/2_7.jpg","x":362,"y":76},{"src":"http://34.125.186.26/images/2_8.jpg","x":524,"y":76}],"moves":[{"src":"http://34.125.186.26/images/2_7.jpg","x":362,"y":314,"move_time":820.9000000357628}],"final_locations":[{"final":{"src":"http://34.125.186.26/images/2_7.jpg","x":362,"y":314,"move_time":820.9000000357628}}],"stars_time":[4862],"end_time":[6353],"rt":1491,"trial_type":"order","trial_index":3,"time_elapsed":5855,"internal_node_id":"0.0-3.0","subject":"7.7.2023, 23:13:40","condition":"conditionB"},{"rt":1101.5,"stimulus":"<p>How difficult was it to order the pictures?</p>","button_pressed":"3","trial_type":"html-button-response","trial_index":4,"time_elapsed":6959,"internal_node_id":"0.0-4.0","subject":"7.7.2023, 23:13:40","condition":"conditionB"},{"rt":1867.6000000238419,"responses":"{\"Q0\":\"\"}","trial_type":"survey-text","trial_index":5,"time_elapsed":8831,"internal_node_id":"0.0-5.0","subject":"7.7.2023, 23:13:40","condition":"conditionB"},{"init_locations":[{"src":"http://34.125.186.26/images/7_1.jpg","x":40,"y":76},{"src":"http://34.125.186.26/images/7_2.jpg","x":201,"y":76},{"src":"http://34.125.186.26/images/7_4.jpg","x":362,"y":76},{"src":"http://34.125.186.26/images/7_3.jpg","x":524,"y":76}],"moves":[{"src":"http://34.125.186.26/images/7_4.jpg","x":362,"y":314,"move_time":1433.9000000357628}],"final_locations":[{"final":{"src":"http://34.125.186.26/images/7_4.jpg","x":362,"y":314,"move_time":1433.9000000357628}}],"stars_time":[9330.199999988079],"end_time":[11908.300000011921],"rt":2578.100000023842,"trial_type":"order","trial_index":6,"time_elapsed":11410,"internal_node_id":"0.0-6.0","subject":"7.7.2023, 23:13:40","condition":"conditionB"}]