PID,trial,pair_id,choice_type,reward_type,stimulus_id,path,outcome_response,outcome_rt,confidence_response,confidence_rt
15673,1,H,unchosen,gain,15,Stimuli/Experimental_stims/outdoor_scenes/henry-be-NLF6hTe4PAg-unsplash.jpg,NaN,NaN,NaN,NaN
15673,2,B,unchosen,gain,31,Stimuli/Experimental_stims/faces/jessica-radanavong-mrYkTuAesKE-unsplash.jpg,NaN,NaN,NaN,NaN
15673,3,I,unchosen,gain,21,Stimuli/Experimental_stims/outdoor_scenes/sergey-pesterev-y-b_FOmJXdg-unsplash.jpg,NaN,NaN,NaN,NaN
15673,4,D,unchosen,gain,32,Stimuli/Experimental_stims/faces/justin-chen-J7Cf1Gch49E-unsplash.jpg,NaN,NaN,NaN,NaN
15673,5,K,chosen,gain,43,Stimuli/Experimental_stims/body_parts/megan-menegay-UojxG_BJxnI-unsplash.jpg,NaN,NaN,NaN,NaN
15673,6,A,chosen,gain,16,Stimuli/Experimental_stims/outdoor_scenes/jarrett-kow-1ZOyYPOBn7I-unsplash.jpg,NaN,NaN,NaN,NaN
15673,7,J,unchosen,gain,56,Stimuli/Experimental_stims/objects/jonathan-greenaway-Y4hGgeiFn3s-unsplash.jpg,NaN,NaN,NaN,NaN
15673,8,D,chosen,gain,54,Stimuli/Experimental_stims/objects/jess-bailey-nOeVi8DsN8U-unsplash.jpg,NaN,NaN,NaN,NaN
15673,9,F,unchosen,gain,47,Stimuli/Experimental_stims/body_parts/tucker-good-36skLT5jZcc-unsplash.jpg,NaN,NaN,NaN,NaN
15673,10,E,chosen,gain,58,Stimuli/Experimental_stims/objects/mockup-graphics-PNsj6RiHAF4-unsplash.jpg,NaN,NaN,NaN,NaN
15673,11,G,chosen,gain,50,Stimuli/Experimental_stims/objects/andrew-petrov-TVJqDat4MAw-unsplash.jpg,NaN,NaN,NaN,NaN
15673,12,C,chosen,gain,19,Stimuli/Experimental_stims/outdoor_scenes/petr-vysohlid-9fqwGqGLUxc-unsplash.jpg,NaN,NaN,NaN,NaN
15673,13,L,unchosen,gain,27,Stimuli/Experimental_stims/faces/daniel-rigdon-dXmXKPP2L4E-unsplash.jpg,NaN,NaN,NaN,NaN
15673,14,F,chosen,gain,33,Stimuli/Experimental_stims/faces/leilani-angel-K84vnnzxmTQ-unsplash.jpg,NaN,NaN,NaN,NaN
15673,15,L,chosen,gain,39,Stimuli/Experimental_stims/body_parts/jonathan-borba-hTwH8QFkPMs-unsplash.jpg,NaN,NaN,NaN,NaN
15673,16,B,chosen,gain,22,Stimuli/Experimental_stims/outdoor_scenes/stephen-leonardi-gyIRjKPXupE-unsplash.jpg,NaN,NaN,NaN,NaN
15673,17,I,chosen,gain,42,Stimuli/Experimental_stims/body_parts/lucrezia-carnelos-kn6QrWtnAtY-unsplash.jpg,NaN,NaN,NaN,NaN
15673,18,G,unchosen,gain,12,Stimuli/Experimental_stims/outdoor_scenes/aleksandra-boguslawska-MS7KD9Ti7FQ-unsplash.jpg,NaN,NaN,NaN,NaN
15673,19,C,unchosen,gain,41,Stimuli/Experimental_stims/body_parts/lucaxx-freire-CacZwMexYdk-unsplash.jpg,NaN,NaN,NaN,NaN
15673,20,E,unchosen,gain,44,Stimuli/Experimental_stims/body_parts/pure-julia-9lVaya31sMk-unsplash.jpg,NaN,NaN,NaN,NaN
15673,21,A,unchosen,gain,59,Stimuli/Experimental_stims/objects/ronaldo-arthur-vidal-Cdz_lvnl37k-unsplash.jpg,NaN,NaN,NaN,NaN
15673,22,J,chosen,gain,26,Stimuli/Experimental_stims/faces/art-hauntington-jzY0KRJopEI-unsplash.jpg,NaN,NaN,NaN,NaN
15673,23,K,unchosen,gain,49,Stimuli/Experimental_stims/objects/alexander-andrews-VLGWE_SumrA-unsplash.jpg,NaN,NaN,NaN,NaN
15673,24,H,chosen,gain,24,Stimuli/Experimental_stims/faces/abstral-official-cyOKLSgkgCE-unsplash.jpg,NaN,NaN,NaN,NaN