PID,practice,run,trial,item_id,stimulus,path,outcome,iti,isi,response,response_acc,response_rt
30959,1,0,1,prac1,NaN,Stimuli/Practice_stims/Outcome_learning/nizar-albusaidy-B2r2SWAf5CE-unsplash.jpg,gain,1500,1000,NaN,NaN,NaN
30959,1,0,2,prac2,NaN,Stimuli/Practice_stims/Outcome_learning/randy-fath-epf1tdtIIkM-unsplash.jpg,no-gain,1000,1500,NaN,NaN,NaN
30959,1,0,3,prac2,NaN,Stimuli/Practice_stims/Outcome_learning/randy-fath-epf1tdtIIkM-unsplash.jpg,no-gain,2000,1000,NaN,NaN,NaN
30959,1,0,4,prac1,NaN,Stimuli/Practice_stims/Outcome_learning/nizar-albusaidy-B2r2SWAf5CE-unsplash.jpg,gain,1000,2000,NaN,NaN,NaN
30959,0,1,5,D,56,Stimuli/Experimental_stims/objects/jonathan-greenaway-Y4hGgeiFn3s-unsplash.jpg,gain,3500,1000,NaN,NaN,NaN
30959,0,1,6,J,31,Stimuli/Experimental_stims/faces/jessica-radanavong-mrYkTuAesKE-unsplash.jpg,no_gain,3500,1500,NaN,NaN,NaN
30959,0,1,7,B,13,Stimuli/Experimental_stims/outdoor_scenes/ashim-d-silva-S2Q5mdOrrVc-unsplash.jpg,gain,2000,2000,NaN,NaN,NaN
30959,0,1,8,G,57,Stimuli/Experimental_stims/objects/kuiye-chen-NuOGFo4PudE-unsplash.jpg,gain,1500,1000,NaN,NaN,NaN
30959,0,1,9,K,37,Stimuli/Experimental_stims/body_parts/engin-akyurt-Q2rfH3GW39c-unsplash.jpg,no_gain,3000,3000,NaN,NaN,NaN
30959,0,1,10,D,56,Stimuli/Experimental_stims/objects/jonathan-greenaway-Y4hGgeiFn3s-unsplash.jpg,gain,1000,1000,NaN,NaN,NaN
30959,0,1,11,K,37,Stimuli/Experimental_stims/body_parts/engin-akyurt-Q2rfH3GW39c-unsplash.jpg,no_gain,1000,3500,NaN,NaN,NaN
30959,0,1,12,C,15,Stimuli/Experimental_stims/outdoor_scenes/henry-be-NLF6hTe4PAg-unsplash.jpg,no_gain,1000,3500,NaN,NaN,NaN
30959,0,1,13,H,27,Stimuli/Experimental_stims/faces/daniel-rigdon-dXmXKPP2L4E-unsplash.jpg,gain,1500,3000,NaN,NaN,NaN
30959,0,1,14,J,31,Stimuli/Experimental_stims/faces/jessica-radanavong-mrYkTuAesKE-unsplash.jpg,no_gain,3500,1000,NaN,NaN,NaN
30959,0,1,15,L,46,Stimuli/Experimental_stims/body_parts/sincerely-media-VN6DbKajo5s-unsplash.jpg,gain,1000,2000,NaN,NaN,NaN
30959,0,1,16,B,13,Stimuli/Experimental_stims/outdoor_scenes/ashim-d-silva-S2Q5mdOrrVc-unsplash.jpg,gain,3000,1000,NaN,NaN,NaN
30959,0,1,17,I,38,Stimuli/Experimental_stims/body_parts/engin-akyurt-x_3gyC42btc-unsplash.jpg,gain,1000,3000,NaN,NaN,NaN
30959,0,1,18,J,31,Stimuli/Experimental_stims/faces/jessica-radanavong-mrYkTuAesKE-unsplash.jpg,no_gain,1500,3000,NaN,NaN,NaN
30959,0,1,19,H,27,Stimuli/Experimental_stims/faces/daniel-rigdon-dXmXKPP2L4E-unsplash.jpg,gain,1000,3500,NaN,NaN,NaN
30959,0,1,20,J,31,Stimuli/Experimental_stims/faces/jessica-radanavong-mrYkTuAesKE-unsplash.jpg,no_gain,3000,2000,NaN,NaN,NaN
30959,0,1,21,L,46,Stimuli/Experimental_stims/body_parts/sincerely-media-VN6DbKajo5s-unsplash.jpg,gain,1500,1000,NaN,NaN,NaN
30959,0,1,22,I,38,Stimuli/Experimental_stims/body_parts/engin-akyurt-x_3gyC42btc-unsplash.jpg,gain,3000,1500,NaN,NaN,NaN
30959,0,1,23,K,37,Stimuli/Experimental_stims/body_parts/engin-akyurt-Q2rfH3GW39c-unsplash.jpg,no_gain,1500,2000,NaN,NaN,NaN
30959,0,1,24,D,56,Stimuli/Experimental_stims/objects/jonathan-greenaway-Y4hGgeiFn3s-unsplash.jpg,gain,1500,1000,NaN,NaN,NaN
30959,0,1,25,J,31,Stimuli/Experimental_stims/faces/jessica-radanavong-mrYkTuAesKE-unsplash.jpg,no_gain,1000,1500,NaN,NaN,NaN
30959,0,1,26,L,46,Stimuli/Experimental_stims/body_parts/sincerely-media-VN6DbKajo5s-unsplash.jpg,gain,1500,1500,NaN,NaN,NaN
30959,0,1,27,I,38,Stimuli/Experimental_stims/body_parts/engin-akyurt-x_3gyC42btc-unsplash.jpg,gain,1500,2000,NaN,NaN,NaN
30959,0,1,28,D,56,Stimuli/Experimental_stims/objects/jonathan-greenaway-Y4hGgeiFn3s-unsplash.jpg,gain,3500,3000,NaN,NaN,NaN
30959,0,1,29,E,54,Stimuli/Experimental_stims/objects/jess-bailey-nOeVi8DsN8U-unsplash.jpg,no_gain,3500,3000,NaN,NaN,NaN
30959,0,1,30,B,13,Stimuli/Experimental_stims/outdoor_scenes/ashim-d-silva-S2Q5mdOrrVc-unsplash.jpg,gain,3000,2000,NaN,NaN,NaN
30959,0,1,31,E,54,Stimuli/Experimental_stims/objects/jess-bailey-nOeVi8DsN8U-unsplash.jpg,no_gain,1000,2000,NaN,NaN,NaN
30959,0,1,32,L,46,Stimuli/Experimental_stims/body_parts/sincerely-media-VN6DbKajo5s-unsplash.jpg,gain,2000,1500,NaN,NaN,NaN
30959,0,1,33,F,25,Stimuli/Experimental_stims/faces/aiony-haust-jmATI5Q_YgY-unsplash.jpg,no_gain,1000,3500,NaN,NaN,NaN
30959,0,1,34,B,13,Stimuli/Experimental_stims/outdoor_scenes/ashim-d-silva-S2Q5mdOrrVc-unsplash.jpg,gain,2000,1500,NaN,NaN,NaN
30959,0,1,35,H,27,Stimuli/Experimental_stims/faces/daniel-rigdon-dXmXKPP2L4E-unsplash.jpg,gain,2000,2000,NaN,NaN,NaN
30959,0,1,36,A,19,Stimuli/Experimental_stims/outdoor_scenes/petr-vysohlid-9fqwGqGLUxc-unsplash.jpg,no_gain,1000,2000,NaN,NaN,NaN
30959,0,1,37,G,57,Stimuli/Experimental_stims/objects/kuiye-chen-NuOGFo4PudE-unsplash.jpg,gain,1000,1500,NaN,NaN,NaN
30959,0,1,38,C,15,Stimuli/Experimental_stims/outdoor_scenes/henry-be-NLF6hTe4PAg-unsplash.jpg,no_gain,1000,1000,NaN,NaN,NaN
30959,0,1,39,A,19,Stimuli/Experimental_stims/outdoor_scenes/petr-vysohlid-9fqwGqGLUxc-unsplash.jpg,no_gain,1000,1500,NaN,NaN,NaN
30959,0,1,40,F,25,Stimuli/Experimental_stims/faces/aiony-haust-jmATI5Q_YgY-unsplash.jpg,no_gain,2000,1000,NaN,NaN,NaN
30959,0,2,41,G,57,Stimuli/Experimental_stims/objects/kuiye-chen-NuOGFo4PudE-unsplash.jpg,gain,1500,2000,NaN,NaN,NaN
30959,0,2,42,K,37,Stimuli/Experimental_stims/body_parts/engin-akyurt-Q2rfH3GW39c-unsplash.jpg,no_gain,2000,1500,NaN,NaN,NaN
30959,0,2,43,E,54,Stimuli/Experimental_stims/objects/jess-bailey-nOeVi8DsN8U-unsplash.jpg,no_gain,1500,1000,NaN,NaN,NaN
30959,0,2,44,C,15,Stimuli/Experimental_stims/outdoor_scenes/henry-be-NLF6hTe4PAg-unsplash.jpg,no_gain,2000,3000,NaN,NaN,NaN
30959,0,2,45,K,37,Stimuli/Experimental_stims/body_parts/engin-akyurt-Q2rfH3GW39c-unsplash.jpg,no_gain,2000,3000,NaN,NaN,NaN
30959,0,2,46,D,56,Stimuli/Experimental_stims/objects/jonathan-greenaway-Y4hGgeiFn3s-unsplash.jpg,gain,3500,3000,NaN,NaN,NaN
30959,0,2,47,K,37,Stimuli/Experimental_stims/body_parts/engin-akyurt-Q2rfH3GW39c-unsplash.jpg,no_gain,1000,1500,NaN,NaN,NaN
30959,0,2,48,E,54,Stimuli/Experimental_stims/objects/jess-bailey-nOeVi8DsN8U-unsplash.jpg,no_gain,1500,1000,NaN,NaN,NaN
30959,0,2,49,C,15,Stimuli/Experimental_stims/outdoor_scenes/henry-be-NLF6hTe4PAg-unsplash.jpg,no_gain,1000,1500,NaN,NaN,NaN
30959,0,2,50,F,25,Stimuli/Experimental_stims/faces/aiony-haust-jmATI5Q_YgY-unsplash.jpg,no_gain,3000,1500,NaN,NaN,NaN
30959,0,2,51,A,19,Stimuli/Experimental_stims/outdoor_scenes/petr-vysohlid-9fqwGqGLUxc-unsplash.jpg,no_gain,2000,1500,NaN,NaN,NaN
30959,0,2,52,C,15,Stimuli/Experimental_stims/outdoor_scenes/henry-be-NLF6hTe4PAg-unsplash.jpg,no_gain,3000,3000,NaN,NaN,NaN
30959,0,2,53,G,57,Stimuli/Experimental_stims/objects/kuiye-chen-NuOGFo4PudE-unsplash.jpg,gain,1500,1000,NaN,NaN,NaN
30959,0,2,54,F,25,Stimuli/Experimental_stims/faces/aiony-haust-jmATI5Q_YgY-unsplash.jpg,no_gain,2000,1500,NaN,NaN,NaN
30959,0,2,55,L,46,Stimuli/Experimental_stims/body_parts/sincerely-media-VN6DbKajo5s-unsplash.jpg,gain,1000,3000,NaN,NaN,NaN
30959,0,2,56,A,19,Stimuli/Experimental_stims/outdoor_scenes/petr-vysohlid-9fqwGqGLUxc-unsplash.jpg,no_gain,3000,1000,NaN,NaN,NaN
30959,0,2,57,E,54,Stimuli/Experimental_stims/objects/jess-bailey-nOeVi8DsN8U-unsplash.jpg,no_gain,1500,1000,NaN,NaN,NaN
30959,0,2,58,B,13,Stimuli/Experimental_stims/outdoor_scenes/ashim-d-silva-S2Q5mdOrrVc-unsplash.jpg,gain,1500,1000,NaN,NaN,NaN
30959,0,2,59,G,57,Stimuli/Experimental_stims/objects/kuiye-chen-NuOGFo4PudE-unsplash.jpg,gain,1500,1000,NaN,NaN,NaN
30959,0,2,60,H,27,Stimuli/Experimental_stims/faces/daniel-rigdon-dXmXKPP2L4E-unsplash.jpg,gain,3000,1000,NaN,NaN,NaN
30959,0,2,61,D,56,Stimuli/Experimental_stims/objects/jonathan-greenaway-Y4hGgeiFn3s-unsplash.jpg,gain,1500,1000,NaN,NaN,NaN
30959,0,2,62,I,38,Stimuli/Experimental_stims/body_parts/engin-akyurt-x_3gyC42btc-unsplash.jpg,gain,1000,2000,NaN,NaN,NaN
30959,0,2,63,B,13,Stimuli/Experimental_stims/outdoor_scenes/ashim-d-silva-S2Q5mdOrrVc-unsplash.jpg,gain,2000,1000,NaN,NaN,NaN
30959,0,2,64,F,25,Stimuli/Experimental_stims/faces/aiony-haust-jmATI5Q_YgY-unsplash.jpg,no_gain,2000,1000,NaN,NaN,NaN
30959,0,2,65,A,19,Stimuli/Experimental_stims/outdoor_scenes/petr-vysohlid-9fqwGqGLUxc-unsplash.jpg,no_gain,1000,1500,NaN,NaN,NaN
30959,0,2,66,H,27,Stimuli/Experimental_stims/faces/daniel-rigdon-dXmXKPP2L4E-unsplash.jpg,gain,1000,1500,NaN,NaN,NaN
30959,0,2,67,E,54,Stimuli/Experimental_stims/objects/jess-bailey-nOeVi8DsN8U-unsplash.jpg,no_gain,1500,1000,NaN,NaN,NaN
30959,0,2,68,J,31,Stimuli/Experimental_stims/faces/jessica-radanavong-mrYkTuAesKE-unsplash.jpg,no_gain,3000,3500,NaN,NaN,NaN
30959,0,2,69,F,25,Stimuli/Experimental_stims/faces/aiony-haust-jmATI5Q_YgY-unsplash.jpg,no_gain,3000,3000,NaN,NaN,NaN
30959,0,2,70,I,38,Stimuli/Experimental_stims/body_parts/engin-akyurt-x_3gyC42btc-unsplash.jpg,gain,1000,1000,NaN,NaN,NaN
30959,0,2,71,L,46,Stimuli/Experimental_stims/body_parts/sincerely-media-VN6DbKajo5s-unsplash.jpg,gain,1000,1500,NaN,NaN,NaN
30959,0,2,72,A,19,Stimuli/Experimental_stims/outdoor_scenes/petr-vysohlid-9fqwGqGLUxc-unsplash.jpg,no_gain,1000,1000,NaN,NaN,NaN
30959,0,2,73,C,15,Stimuli/Experimental_stims/outdoor_scenes/henry-be-NLF6hTe4PAg-unsplash.jpg,no_gain,1000,3500,NaN,NaN,NaN
30959,0,2,74,G,57,Stimuli/Experimental_stims/objects/kuiye-chen-NuOGFo4PudE-unsplash.jpg,gain,3000,2000,NaN,NaN,NaN
30959,0,2,75,H,27,Stimuli/Experimental_stims/faces/daniel-rigdon-dXmXKPP2L4E-unsplash.jpg,gain,1500,1000,NaN,NaN,NaN
30959,0,2,76,I,38,Stimuli/Experimental_stims/body_parts/engin-akyurt-x_3gyC42btc-unsplash.jpg,gain,1000,1500,NaN,NaN,NaN